timestamp,gyro_x,gyro_y,gyro_z,acc_x,acc_y,acc_z,mag_x,mag_y,mag_z
0.0,-0.163625,0.3603875,0.0955625,9.802051,0.94995004,0.537,-20.643751,-17.587502,-32.4
0.07309941520467836,-0.0614625,0.0869,0.17105,9.802051,0.94995004,0.537,-20.643751,-17.587502,-32.4
0.14619883040935672,0.3067625,0.061325,0.0785125,9.946051,0.47295,0.609,-20.643751,-17.587502,-32.4
0.21929824561403508,0.199375,0.20927499,-0.1513875,9.946051,0.47295,0.609,-20.643751,-17.587502,-32.4
0.29239766081871343,-0.0092125,-0.011,0.1892,10.177951,0.60795003,0.74295,-32.34375,27.187502,1.3875
0.36549707602339176,-0.0092125,-0.011,0.1892,10.177951,0.60795003,0.74295,-32.287502,27.6,1.3125
0.43859649122807015,0.0163625,-0.0078375,0.114675,9.951,0.81600004,0.44400004,-32.287502,27.6,1.3125
0.5116959064327485,0.082225,-0.1632125,-0.1513875,9.951,0.81600004,0.44400004,-32.287502,27.6,1.3125
0.5847953216374269,0.082225,-0.1632125,-0.1513875,9.7570505,0.89295006,0.51600003,-32.287502,27.6,1.3125
0.6578947368421052,0.1376375,0.0496375,-0.1109625,9.891001,0.924,0.16800001,-32.2125,27.7875,1.25625
0.7309941520467835,0.017325,0.0325875,-0.0257125,9.967051,0.89505005,0.55605,-32.2125,27.7875,1.25625
0.804093567251462,-0.0188375,-0.0312125,0.0594,9.967051,0.89505005,0.55605,-32.287502,27.900002,1.2
0.8771929824561403,-0.0188375,-0.0312125,0.0594,9.89805,0.90705,0.56805,-32.287502,27.900002,1.2
0.9502923976608186,0.0088,-0.0248875,0.10615,9.90495,0.864,0.25395,-32.287502,27.900002,1.2
1.023391812865497,0.0556875,-0.001375,-0.0171875,9.654,0.80205005,0.31005,-32.287502,27.843752,1.0875001
1.0964912280701753,0.02475,0.0314875,0.04345,9.654,0.80205005,0.31005,-32.287502,27.843752,1.0875001
1.1695906432748537,0.02475,0.0314875,0.04345,9.654,0.80205005,0.31005,-32.34375,28.2,0.7875
1.2426900584795322,-0.1156375,0.00495,-0.015125,10.045951,1.0360501,0.32205,-32.34375,28.2,0.7875
1.3157894736842104,-0.0826375,0.093225,-0.0779625,10.045951,1.0360501,0.32205,-32.34375,28.2,0.7875
1.3888888888888888,-0.0826375,0.093225,-0.0779625,10.22805,1.1230501,0.40500003,-32.34375,28.2,0.7875
1.461988304093567,0.102575,-0.1153625,0.1126125,10.05405,0.59805006,0.33600003,-32.34375,28.312502,0.65625
1.5350877192982455,0.0121,-0.0301125,0.050875,9.958051,0.66495,0.20205002,-32.34375,28.312502,0.65625
1.608187134502924,0.0121,-0.0301125,0.050875,9.958051,0.66495,0.20205002,-32.4,28.800001,0.6
1.6812865497076022,0.0290125,0.0231,-0.0023375,9.76395,0.77505004,0.33600003,-32.4,28.800001,0.6
1.7543859649122806,0.0950125,0.046475,-0.031075,9.76395,0.77505004,0.33600003,-32.4,28.800001,0.6
1.827485380116959,0.0950125,0.046475,-0.031075,9.826051,0.84000003,0.35505003,-32.4,28.800001,0.6
1.9005847953216373,0.165275,-0.0248875,-0.049225,10.08705,1.0170001,0.39105,-32.456253,28.743752,0.6
1.9736842105263157,0.1131625,-0.11,-0.0917125,9.61095,0.75105006,0.01305,-32.456253,28.743752,0.6
2.046783625730994,0.1472625,-0.117425,-0.1024375,9.61095,0.75105006,0.01305,-32.8125,28.44375,0.41250002
2.1198830409356724,0.1472625,-0.117425,-0.1024375,9.642,0.675,-0.03705,-32.8125,28.44375,0.41250002
2.1929824561403506,0.197175,0.0666875,-0.1045,9.931951,0.77505004,0.09405001,-32.8875,28.25625,0.1875
2.2660818713450293,-0.0433125,0.0592625,0.0594,10.000951,0.711,0.29505002,-32.8875,28.25625,0.1875
2.3391812865497075,-0.121,0.013475,0.0402875,9.80895,0.88995004,0.19695,-33.05625,28.44375,-0.05625
2.4122807017543857,-0.1178375,0.0177375,-0.0119625,9.80895,0.88995004,0.19695,-33.05625,28.44375,-0.05625
2.4853801169590644,-0.1082125,0.095425,0.0583,10.177951,1.02405,0.453,-33.112503,28.612501,-0.05625
2.5584795321637426,-0.1167375,0.06985,0.017875,10.177951,1.02405,0.453,-33.112503,28.612501,-0.05625
2.631578947368421,-0.0933625,-0.018425,-0.0715,9.903001,1.1700001,0.48195,-33.112503,28.612501,-0.05625
2.7046783625730995,0.035475,-0.0545875,0.017875,9.903001,1.1700001,0.48195,-33.112503,28.612501,-0.05625
2.7777777777777777,0.035475,-0.0545875,0.017875,9.903001,1.1700001,0.48195,-33.65625,28.612501,0.05625
2.850877192982456,0.0215875,-0.0078375,-0.0012375,9.82905,1.02405,0.28995,-33.65625,28.612501,0.05625
2.923976608187134,-0.0581625,-0.0386375,-0.016225,9.88605,1.065,0.23805001,-33.9,28.612501,-0.05625
2.997076023391813,-0.0273625,-0.011,0.0477125,9.88605,1.065,0.23805001,-33.9,28.612501,-0.05625
3.070175438596491,-0.0273625,-0.011,0.0477125,9.948001,1.02195,0.23295002,-33.9,28.612501,-0.05625
3.143274853801169,-0.0092125,0.0570625,0.051975,9.927,0.873,0.37395,-33.9,28.612501,-0.05625
3.216374269005848,0.003575,0.0103125,-0.0023375,9.927,0.873,0.37395,-34.2,28.3875,-0.1125
3.289473684210526,-0.095425,0.0433125,0.0242,10.04895,0.95505005,0.46500003,-34.2,28.3875,-0.1125
3.3625730994152043,-0.0763125,-0.018425,0.0147125,10.066051,0.77805007,0.48195,-34.143753,28.25625,-0.05625
3.435672514619883,-0.0922625,-0.034375,-0.032175,10.066051,0.77805007,0.48195,-34.143753,28.25625,-0.05625
3.508771929824561,-0.0922625,-0.034375,-0.032175,9.970051,0.735,0.45795003,-34.143753,28.25625,-0.05625
3.5818713450292394,-0.1230625,-0.05995,-0.05665,9.939,0.708,0.096,-33.956253,28.44375,0.1875
3.654970760233918,-0.3146,0.03575,-0.0364375,9.88395,0.74205005,0.42495003,-33.956253,28.44375,0.1875
3.7280701754385963,-0.3146,0.03575,-0.0364375,9.88395,0.74205005,0.42495003,-34.0875,28.500002,0.54375005
3.8011695906432745,-0.2976875,-0.0716375,0.0199375,9.88395,0.74205005,0.42495003,-34.0875,28.500002,0.54375005
3.874269005847953,-0.23375,0.0081125,0.084975,9.951,1.31895,0.55395,-34.0875,28.500002,0.54375005
3.9473684210526314,-0.0017875,0.160325,-0.0364375,9.951,1.31895,0.55395,-34.0125,28.500002,0.84375006
4.02046783625731,0.606925,-0.1643125,0.1689875,10.297951,1.5439501,1.0020001,-34.0125,28.500002,0.84375006
4.093567251461988,0.606925,-0.1643125,0.1689875,10.297951,1.5439501,1.0020001,-34.0875,28.612501,0.7875
4.166666666666666,0.7165125,-0.143,-0.1896125,10.159051,1.1730001,0.46500003,-34.0875,28.612501,0.7875
4.239766081871345,0.8943,-0.101475,-0.065175,10.159051,1.1730001,0.46500003,-34.0875,28.612501,0.7875
4.312865497076023,1.2667875,0.307175,0.425425,9.069,-1.17795,1.4860501,-34.0875,28.612501,0.7875
4.385964912280701,1.1902,0.3752375,0.49885,9.06495,-0.34500003,0.573,-33.1875,28.687502,0.0
4.45906432748538,1.3891625,0.079475,0.7469,9.06495,-0.34500003,0.573,-33.1875,28.687502,0.0
4.5321637426900585,1.147575,0.40301248,-0.6078875,10.2619505,0.282,2.214,-32.5875,28.800001,-2.1000001
4.605263157894736,1.5604875,0.5913875,-0.7132125,10.2619505,0.282,2.214,-32.5875,28.800001,-2.1000001
4.678362573099415,1.5604875,0.5913875,-0.7132125,10.2619505,1.1389501,2.6089501,-32.5875,28.800001,-2.1000001
4.751461988304094,2.3139875,0.337975,-0.815375,9.328051,1.503,2.2810502,-32.2125,26.94375,-5.5125003
4.824561403508771,2.293775,-0.13653749,-0.5567375,7.6710005,3.3040502,-0.31005,-32.2125,26.94375,-5.5125003
4.89766081871345,2.293775,-0.13653749,-0.5567375,7.6710005,3.3040502,-0.31005,-32.04375,23.456251,-9.4125
4.970760233918129,2.1564126,0.1816375,0.0210375,7.6710005,3.3040502,-0.31005,-32.04375,23.456251,-9.4125
5.0438596491228065,0.6133875,0.2050125,1.260875,9.354,0.87795,-1.31295,-32.04375,23.456251,-9.4125
5.116959064327485,0.460075,0.8041,0.3232625,9.354,0.87795,-1.31295,-32.04375,23.456251,-9.4125
5.190058479532164,0.8996625,1.0979375,0.0699875,10.878,1.5679501,0.70005006,-31.500002,19.987501,-13.9875
5.263157894736842,2.1224499,1.0723625,0.6851625,10.878,1.5679501,0.70005006,-31.500002,19.987501,-13.9875
5.33625730994152,2.1224499,1.0723625,0.6851625,9.999001,0.97395,1.8780001,-30.4125,14.812501,-18.6
5.409356725146199,3.061025,0.7126625,0.8149625,8.523001,2.1040502,3.3060002,-30.4125,14.812501,-18.6
5.482456140350877,3.7081,0.257125,1.5855125,8.523001,2.1040502,3.3060002,-30.4125,14.812501,-18.6
5.555555555555555,3.7081,0.257125,1.5855125,9.11505,1.8960001,3.2430003,-30.4125,14.812501,-18.6
5.628654970760234,3.0419126,-0.1535875,1.000175,9.880951,0.36600003,1.66005,-29.8875,8.45625,-20.8875
5.701754385964912,2.5513124,0.16665,1.0087,9.982051,-1.0009501,2.08395,-29.8875,8.45625,-20.8875
5.7748538011695905,2.3054626,-0.2409,1.31835,9.982051,-1.0009501,2.08395,-29.8875,8.45625,-20.8875
5.847953216374268,2.3054626,-0.2409,1.31835,9.982051,-1.0009501,2.08395,-30.4125,2.2125,-21.4125
5.921052631578947,2.0394,-0.42185,0.492525,9.040951,-1.8460501,1.3609501,-30.4125,2.2125,-21.4125
5.994152046783626,1.851025,-0.070675,0.951225,9.29205,-2.424,0.34800002,-31.3875,-3.4875002,-19.5
6.067251461988303,1.851025,-0.070675,0.951225,10.17105,-3.2620502,-0.24300002,-31.3875,-3.4875002,-19.5
6.140350877192982,1.5679125,0.4019125,1.6163125,10.698001,-1.8100501,1.383,-31.3875,-3.4875002,-19.5
6.213450292397661,0.559075,0.2827,0.5839625,10.698001,-1.8100501,1.383,-32.756252,-8.2875,-16.3875
6.286549707602338,0.183425,0.5465625,-1.3017125,7.82595,-3.1039503,5.1210003,-32.756252,-8.2875,-16.3875
6.359649122807017,0.2418625,0.358325,-1.2601875,7.82595,-3.1039503,5.1210003,-33.300003,-12.0,-11.887501
6.432748538011696,0.853875,-0.68255,-0.850575,9.09795,0.07305,4.0339503,-33.300003,-12.0,-11.887501
6.5058479532163735,1.6765375,-0.7921375,-0.2800875,9.09795,0.07305,4.0339503,-33.300003,-12.0,-11.887501
6.578947368421052,1.6765375,-0.7921375,-0.2800875,9.199051,0.32700002,2.1660001,-33.300003,-12.0,-11.887501
6.652046783625731,2.1797874,0.2699125,0.737275,7.42605,0.05205,4.1340003,-34.3125,-12.843751,-5.5875
6.725146198830409,3.10035,-0.45581248,1.538625,8.88,-1.5330001,0.513,-34.987503,-11.212501,1.6125001
6.798245614035087,1.7829624,-0.1450625,1.1501875,8.88,-1.5330001,0.513,-34.987503,-11.212501,1.6125001
6.871345029239766,1.7829624,-0.1450625,1.1501875,8.37195,-0.40695003,4.4100003,-34.987503,-11.212501,1.6125001
6.944444444444444,2.1170876,-0.2110625,0.60005,9.45495,-3.006,3.8160002,-34.987503,-11.212501,1.6125001
7.017543859649122,2.90565,-0.6697625,0.819225,9.45495,-3.006,3.8160002,-34.987503,-11.212501,1.6125001
7.090643274853801,2.90565,-0.6697625,0.819225,9.45495,-3.006,3.8160002,-35.4,-5.9437504,7.9125004
7.163742690058479,2.847075,-0.152625,0.362725,9.21105,-5.1439505,4.776,-35.4,-5.9437504,7.9125004
7.2368421052631575,2.8535376,-0.1461625,-0.0193875,8.953951,-2.184,3.9280503,-35.2125,1.5,9.6
7.309941520467836,3.0376499,-0.4675,0.296725,8.953951,-2.184,3.9280503,-35.2125,1.5,9.6
7.383040935672514,3.0376499,-0.4675,0.296725,8.502001,-1.7479501,4.23,-35.2125,1.5,9.6
7.456140350877193,3.1930249,-0.7645,0.7181625,9.184051,-2.325,3.9880502,-33.9,8.043751,7.8562503
7.529239766081871,2.5672624,-0.2099625,0.2190375,9.59595,-1.63995,4.31895,-33.9,8.043751,7.8562503
7.602339181286549,2.6470125,-0.28765,0.10615,9.321,-0.12195001,3.5839503,-32.5875,12.656251,3.0
7.675438596491228,2.619375,-0.296175,0.0242,9.321,-0.12195001,3.5839503,-32.5875,12.656251,3.0
7.748538011695906,2.619375,-0.296175,0.0242,9.426001,0.71805006,2.7,-32.5875,12.656251,3.0
7.821637426900584,3.0556624,-0.5687,0.2242625,11.560051,1.0530001,3.3229501,-30.956251,14.156251,-2.2875001
7.894736842105263,3.10255,-1.8957125,0.47341248,10.20495,-0.70395005,-1.31595,-30.956251,14.156251,-2.2875001
7.9678362573099415,3.10255,-1.8957125,0.47341248,10.20495,-0.70395005,-1.31595,-30.956251,14.887501,-6.05625
8.04093567251462,2.6225374,-1.155,0.4137375,10.20495,-0.70395005,-1.31595,-30.956251,14.887501,-6.05625
8.114035087719298,2.7801125,-0.068475,-0.4695625,8.71695,0.6,-1.3440001,-30.956251,14.887501,-6.05625
8.187134502923977,3.2813,0.455125,-0.520575,8.71695,0.6,-1.3440001,-30.956251,14.887501,-6.05625
8.260233918128655,3.8495874,0.72435,-0.0917125,8.691,-1.4080501,-0.441,-30.6,12.7875,-9.712501
8.333333333333332,3.2429376,0.9818875,-0.1087625,8.691,-1.4080501,-0.441,-30.6,12.7875,-9.712501
8.40643274853801,2.7002249,1.83645,0.0147125,10.627951,0.79395,2.523,-30.656252,7.6875005,-13.012501
8.47953216374269,2.2617376,2.42605,-0.2470875,10.627951,0.79395,2.523,-30.656252,7.6875005,-13.012501
8.552631578947368,2.2617376,2.42605,-0.2470875,11.46195,1.968,3.00195,-30.656252,7.6875005,-13.012501
8.625730994152047,1.6808,0.1060125,0.9851875,9.714001,-3.6330001,4.9339504,-31.556252,1.1437501,-15.056251
8.698830409356725,1.5211625,-0.329175,0.359425,7.3900504,1.6300501,5.4229503,-31.556252,1.1437501,-15.056251
8.771929824561402,2.3054626,-0.413325,0.426525,7.3900504,1.6300501,5.4229503,-32.756252,-5.7000003,-13.312501
8.845029239766081,2.3054626,-0.413325,0.426525,7.1599503,1.2250501,4.92705,-32.756252,-5.7000003,-13.312501
8.91812865497076,2.899325,-0.363275,1.095875,9.069,-1.4940001,2.66895,-32.756252,-5.7000003,-13.312501
8.991228070175438,2.537425,-0.2110625,0.94159997,10.128,-1.7550001,1.9879501,-34.0125,-9.543751,-8.400001
9.064327485380117,2.0681374,-0.3419625,0.30415,9.856951,-1.6570501,1.4640001,-34.0125,-9.543751,-8.400001
9.137426900584796,1.9298124,-0.242,0.0369875,9.856951,-1.6570501,1.4640001,-34.0125,-9.543751,-8.400001
9.210526315789473,1.9298124,-0.242,0.0369875,9.856951,-1.6570501,1.4640001,-34.987503,-10.856251,-1.9875001
9.283625730994151,1.635975,0.52745,0.6254875,10.82505,-0.79005,2.8579502,-34.987503,-10.856251,-1.9875001
9.35672514619883,1.425325,0.423225,0.1764125,11.995951,-1.45095,2.214,-36.0,-8.34375,3.8437502
9.429824561403509,1.5541625,0.03795,0.67347497,11.995951,-1.45095,2.214,-36.0,-8.34375,3.8437502
9.502923976608187,1.5541625,0.03795,0.67347497,10.55895,-2.4709501,1.9650002,-36.0,-8.34375,3.8437502
9.576023391812864,1.572175,0.1645875,0.49995,8.490001,-0.30600002,4.19205,-35.643753,-3.4125001,6.8437505
9.649122807017543,1.89145,0.34759998,0.411675,8.490001,-0.30600002,4.19205,-35.643753,-3.4125001,6.8437505
9.722222222222221,1.89145,0.34759998,0.411675,8.82705,0.03795,3.8850002,-35.643753,-3.4125001,6.8437505
9.7953216374269,1.8041375,1.2926375,0.310475,11.886001,1.70895,4.02405,-35.34375,3.24375,7.3125005
9.868421052631579,1.770175,0.9510875,-0.5993625,11.886001,1.70895,4.02405,-34.74375,9.4125,5.1000004
9.941520467836257,2.41505,0.5647125,0.1700875,6.636,3.8070002,5.52405,-34.74375,9.4125,5.1000004
10.014619883040934,3.8740625,-0.26221249,0.9607125,6.9349504,2.322,4.69995,-33.787502,13.743751,0.95625
10.087719298245613,4.173125,-0.345125,1.3556125,8.941951,0.85200006,2.8150501,-33.787502,13.743751,0.95625
10.160818713450292,4.6850376,0.3433375,0.900075,8.941951,0.85200006,2.8150501,-33.787502,13.743751,0.95625
10.23391812865497,5.0180626,0.2189,1.5428874,10.59,-1.0200001,0.32205,-32.4,14.1,-4.2000003
10.307017543859649,4.3412876,0.6125625,0.1456125,10.59,-1.0200001,0.32205,-32.4,14.1,-4.2000003
10.380116959064328,3.5410376,-0.491975,1.2694,9.73995,0.37005,0.537,-32.04375,10.9125,-8.587501
10.453216374269005,3.2940874,0.1252625,1.0118625,10.420051,1.434,-1.9650002,-32.04375,10.9125,-8.587501
10.526315789473683,1.8766,-0.2387,0.6414375,10.420051,1.434,-1.9650002,-32.04375,10.9125,-8.587501
10.599415204678362,1.8766,-0.2387,0.6414375,10.498951,0.804,-2.26395,-32.04375,10.9125,-8.587501
10.67251461988304,1.063425,0.0730125,0.1381875,10.06305,1.5820501,-1.3110001,-31.85625,6.6000004,-11.887501
10.74561403508772,1.3784375,0.4571875,-0.423775,8.67195,-0.16995001,-4.1130004,-31.85625,6.6000004,-11.887501
10.818713450292398,0.834625,0.2561625,0.6840625,8.67195,-0.16995001,-4.1130004,-31.743752,0.6,-13.856251
10.891812865497075,0.834625,0.2561625,0.6840625,8.868,-0.51900005,-3.2340002,-31.743752,0.6,-13.856251
10.964912280701753,0.4569125,0.121,-0.1024375,9.517051,2.466,0.55095005,-31.743752,0.6,-13.856251
11.038011695906432,1.7073375,-0.2781625,0.5031125,9.517051,2.466,0.55095005,-31.987501,-5.8125,-13.25625
11.11111111111111,2.0095625,-1.0528375,0.575575,9.490951,-3.0679502,-0.279,-31.987501,-5.8125,-13.25625
11.18421052631579,1.7744375,-0.9059875,0.6254875,9.490951,-3.0679502,-0.279,-31.987501,-5.8125,-13.25625
11.257309941520468,1.6264875,0.1134375,0.1274625,9.75195,-1.3429501,0.09195001,-32.287502,-11.34375,-10.5
11.330409356725145,1.6765375,0.3689125,0.319,9.75195,-1.3429501,0.09195001,-32.287502,-11.34375,-10.5
11.403508771929824,1.6765375,0.3689125,0.319,6.2359505,-3.55605,2.733,-32.287502,-11.34375,-10.5
11.476608187134502,2.8268626,-0.0078375,-0.653675,9.42405,-1.3939501,1.5619501,-33.24375,-15.056251,-5.2125
11.549707602339181,2.0255125,0.2784375,-0.2407625,11.328,-2.7250502,1.07595,-33.24375,-15.056251,-5.2125
11.62280701754386,2.0255125,0.2784375,-0.2407625,11.328,-2.7250502,1.07595,-34.5,-16.800001,1.5
11.695906432748536,1.6083375,0.1816375,-0.4503125,11.328,-2.7250502,1.07595,-34.5,-16.800001,1.5
11.769005847953215,0.8729875,-0.232375,-0.57805,8.19495,-1.66005,1.5769501,-34.5,-16.800001,1.5
11.842105263157894,0.5770875,-0.070675,-0.4109875,8.19495,-1.66005,1.5769501,-34.5,-16.800001,1.5
11.915204678362572,0.722975,0.10175,0.5478,9.43095,-2.601,1.5499501,-35.5875,-15.187501,8.1
11.988304093567251,1.197625,0.6040375,1.18635,9.43095,-2.601,1.5499501,-35.5875,-15.187501,8.1
12.06140350877193,1.197625,0.6040375,1.18635,9.43095,-2.601,1.5499501,-35.943752,-11.1,12.4875
12.134502923976607,1.2337875,0.5710375,0.8118,9.87195,-1.57305,4.0480504,-35.943752,-11.1,12.4875
12.207602339181285,2.08725,0.5550875,0.621225,9.87195,-1.57305,4.0480504,-35.943752,-11.1,12.4875
12.280701754385964,0.58355,0.325325,-0.0268125,9.370951,-1.66005,5.6070004,-36.300003,0.95625,16.087502
12.353801169590643,1.0241,0.2358125,0.329725,9.370951,-1.66005,5.6070004,-36.300003,0.95625,16.087502
12.426900584795321,1.0241,0.2358125,0.329725,9.06705,-1.64505,6.87195,-36.300003,0.95625,16.087502
12.5,2.67575,-2.0735,-0.1172875,9.57495,-1.746,5.71995,-35.943752,7.3875003,15.6
12.573099415204677,2.1916125,-0.869825,-0.078925,10.441951,-0.32505003,1.43805,-35.943752,7.3875003,15.6
12.646198830409356,2.0405,-0.1387375,0.40315,10.441951,-0.32505003,1.43805,-35.943752,7.3875003,15.6
12.719298245614034,2.0405,-0.1387375,0.40315,10.441951,-0.32505003,1.43805,-35.4,13.012501,12.900001
12.792397660818713,2.636425,-0.6516125,0.352,8.835,-0.57900006,0.63795,-35.4,13.012501,12.900001
12.865497076023392,2.293775,0.17847499,-0.36313748,10.5060005,0.76995003,0.43905002,-34.85625,16.987501,8.15625
12.93859649122807,2.77365,-0.0471625,0.2563,10.5060005,0.76995003,0.43905002,-34.85625,16.987501,8.15625
13.011695906432747,2.77365,-0.0471625,0.2563,10.342951,1.3600501,0.97800004,-34.85625,16.987501,8.15625
13.084795321637426,2.863025,-0.9315625,0.5861625,9.687,0.59805006,-1.0519501,-34.612503,19.6875,2.7562501
13.157894736842104,2.487375,-0.9986625,0.329725,9.687,0.59805006,-1.0519501,-34.612503,19.6875,2.7562501
13.230994152046783,2.487375,-0.9986625,0.329725,9.333,0.86100006,-0.73395,-34.612503,19.6875,2.7562501
13.304093567251462,1.2199,0.7189875,-0.7206375,8.743951,0.26295,-1.58595,-34.5,20.7,-3.4875002
13.37719298245614,0.851675,1.27985,-0.7228375,8.743951,0.26295,-1.58595,-34.5,20.7,-3.4875002
13.450292397660817,0.851675,1.27985,-0.7228375,9.057,0.71505004,-0.81705004,-34.5,20.7,-3.4875002
13.523391812865496,1.00705,0.36245,-0.11935,8.752951,1.8030001,2.496,-33.84375,19.3875,-9.900001
13.596491228070175,2.373525,-0.4005375,-0.2088625,8.752951,1.8030001,2.496,-33.84375,19.3875,-9.900001
13.669590643274853,2.832225,0.0231,0.56595,9.699,2.334,-2.3070002,-33.35625,14.887501,-14.45625
13.742690058479532,2.832225,0.0231,0.56595,11.191051,-0.282,-0.74295,-33.35625,14.887501,-14.45625
13.81578947368421,1.9190875,-0.491975,0.6149,8.964001,-0.57495004,-0.98805004,-33.35625,14.887501,-14.45625
13.888888888888888,2.5746875,-0.4686,0.2498375,8.964001,-0.57495004,-0.98805004,-33.787502,8.8125,-16.556252
13.961988304093566,2.5746875,-0.4686,0.2498375,7.9339504,-1.31505,-1.3420501,-33.787502,8.8125,-16.556252
14.035087719298245,2.0499876,-0.427075,-0.6004625,11.107051,-0.36600003,-2.05305,-33.787502,8.8125,-16.556252
14.108187134502923,1.8744,-0.3707,-0.047025,11.107051,-0.36600003,-2.05305,-34.0875,2.2875001,-17.15625
14.181286549707602,1.6105375,0.275275,-0.11935,8.866051,1.2060001,0.31905,-34.0875,2.2875001,-17.15625
14.254385964912279,2.9407125,0.763675,-0.4961,8.866051,1.2060001,0.31905,-34.0875,2.2875001,-17.15625
14.327485380116958,2.9407125,0.763675,-0.4961,11.517,-1.7910001,-1.9099501,-34.0875,2.2875001,-17.15625
14.400584795321636,3.0152376,-0.004675,-0.2046,9.667951,-1.0339501,0.32595003,-34.256252,-4.2562504,-14.812501
14.473684210526315,2.9822376,-0.1557875,-0.0034375,9.523951,-2.256,-0.33795002,-34.256252,-4.2562504,-14.812501
14.546783625730994,2.2532125,0.2806375,-0.15345,9.523951,-2.256,-0.33795002,-34.256252,-8.8125,-9.6
14.619883040935672,1.2401125,0.4093375,-1.0527,12.151951,-2.22195,-0.55905,-34.256252,-8.8125,-9.6
14.69298245614035,1.2401125,0.4093375,-1.0527,12.151951,-2.22195,-0.55905,-34.256252,-8.8125,-9.6
14.766081871345028,0.4802875,-0.5570125,-0.0353375,11.601001,-2.0070002,0.61905,-33.787502,-12.187501,-3.7875001
14.839181286549707,1.59775,0.34553748,1.258675,9.261001,-0.46695003,-0.17295001,-33.787502,-12.187501,-3.7875001
14.912280701754385,1.704175,0.7860875,1.2236125,9.261001,-0.46695003,-0.17295001,-33.84375,-12.6,3.1875002
14.985380116959064,1.7659125,0.012375,-0.54835,11.7949505,-2.43495,1.593,-33.84375,-12.6,3.1875002
15.058479532163743,1.7659125,0.012375,-0.54835,11.7949505,-2.43495,1.593,-33.84375,-12.6,3.1875002
15.13157894736842,1.7062374,-0.086625,0.5489,11.7949505,-2.43495,1.593,-34.0125,-11.2875,10.14375
15.204678362573098,1.1199375,-0.49307498,0.0966625,8.157001,-0.05205,0.58500004,-34.0125,-11.2875,10.14375
15.277777777777777,1.23585,0.501875,0.7128,9.358951,1.008,0.528,-33.9,-7.3125005,15.843751
15.350877192982455,1.23585,0.501875,0.7128,9.358951,1.008,0.528,-33.9,-7.3125005,15.843751
15.423976608187134,2.3447876,0.4412375,0.997975,8.82495,-0.37800002,0.63495004,-33.9,-7.3125005,15.843751
15.497076023391813,4.3817124,-0.7995625,0.00935,10.85805,-2.016,3.7870502,-32.943752,-0.41250002,18.54375
15.57017543859649,4.467925,-0.35901248,-0.28861248,10.897051,-2.529,2.46495,-32.943752,-0.41250002,18.54375
15.643274853801168,4.467925,-0.35901248,-0.28861248,10.897051,-2.529,2.46495,-32.943752,-0.41250002,18.54375
15.716374269005847,4.564725,0.8573125,-1.5742375,10.897051,-2.529,2.46495,-32.34375,5.8875003,16.44375
15.789473684210526,4.219875,0.8509875,-0.2673,9.502951,3.1729503,2.1319501,-32.34375,5.8875003,16.44375
15.862573099415204,4.090075,0.6967125,0.5053125,9.502951,3.1729503,2.1319501,-32.34375,5.8875003,16.44375
15.935672514619883,3.5069375,0.72545,0.17435,9.261001,3.1990502,1.93605,-31.612501,9.1125,10.743751
16.00877192982456,3.4260874,-0.1535875,1.1842875,9.261001,3.1990502,1.93605,-31.612501,9.1125,10.743751
16.08187134502924,2.6268,-0.347325,0.279675,9.189,1.5990001,0.72195005,-31.143751,8.700001,4.0875
16.15497076023392,2.6268,-0.347325,0.279675,9.189,1.5990001,0.72195005,-31.143751,8.700001,4.0875
16.228070175438596,1.688225,1.321375,0.2424125,8.52795,2.6479502,0.54195005,-31.143751,8.700001,4.0875
16.301169590643273,0.8963625,0.13475,-0.0726,8.49405,2.0010002,1.5090001,-30.54375,6.7875004,-1.8000001
16.374269005847953,2.3106875,0.2508,1.2172875,8.49405,2.0010002,1.5090001,-30.54375,6.7875004,-1.8000001
16.44736842105263,2.0010376,-0.380325,0.2998875,11.50695,1.338,3.65805,-30.056252,3.05625,-6.95625
16.52046783625731,2.0010376,-0.380325,0.2998875,11.50695,1.338,3.65805,-30.056252,3.05625,-6.95625
16.593567251461987,2.2160876,-1.2189375,0.706475,10.842001,2.2669501,0.09195001,-30.056252,3.05625,-6.95625
16.666666666666664,2.3629375,-0.7431875,-0.0279125,9.429001,-0.59400004,-0.504,-30.187502,-0.95625,-9.4875
16.739766081871345,2.178825,-0.41965,0.2211,9.036,-2.6869502,-1.20105,-30.187502,-0.95625,-9.4875
16.81286549707602,2.178825,-0.41965,0.2211,9.036,-2.6869502,-1.20105,-30.187502,-0.95625,-9.4875
16.885964912280702,3.503775,-0.659175,-1.0165375,9.036,-2.6869502,-1.20105,-30.000002,-5.5125003,-9.7875
16.95906432748538,3.7016375,0.5328125,0.0253,7.05705,-3.1420503,-0.13005,-30.000002,-5.5125003,-9.7875
17.032163742690056,3.5473626,0.7871875,-0.1161875,7.05705,-3.1420503,-0.13005,-30.000002,-5.5125003,-9.7875
17.105263157894736,2.7853374,0.3029125,0.0466125,10.36005,-2.04495,-0.68295,-30.187502,-9.900001,-7.6875005
17.178362573099413,2.7853374,0.3029125,0.0466125,10.36005,-2.04495,-0.68295,-30.187502,-9.900001,-7.6875005
17.251461988304094,1.7796625,-0.1291125,0.63621247,10.42695,-6.5839505,-0.38205,-30.187502,-9.900001,-7.6875005
17.32456140350877,0.7165125,-0.3366,0.2976875,8.35995,-7.6369505,-0.717,-30.243752,-11.8125,-2.2875001
17.39766081871345,0.87615,-0.48675,-1.766875,8.35995,-7.6369505,-0.717,-30.243752,-11.8125,-2.2875001
17.470760233918128,0.87615,-0.48675,-1.766875,11.833051,-6.95205,0.29295,-30.300001,-11.34375,5.7000003
17.543859649122805,0.8921,-0.58465,-2.8512,14.482051,-4.68405,-3.72705,-30.300001,-11.34375,5.7000003
17.616959064327485,2.1489875,0.94682497,-0.3375625,6.60195,0.03,-0.84405005,-30.300001,-11.34375,5.7000003
17.690058479532162,3.26645,1.5555375,0.360525,8.571,3.96495,2.2999501,-30.900002,-7.8562503,12.187501
17.763157894736842,2.342725,0.7275125,-0.4461875,8.571,3.96495,2.2999501,-30.900002,-7.8562503,12.187501
17.83625730994152,2.342725,0.7275125,-0.4461875,10.915951,-0.40695003,2.56995,-31.85625,-2.15625,16.25625
17.909356725146196,1.1572,-0.593175,-1.0973876,10.434001,-0.30900002,2.4820502,-31.85625,-2.15625,16.25625
17.982456140350877,1.63075,1.3277,0.5446375,6.98295,1.6900501,0.09900001,-31.85625,-2.15625,16.25625
18.055555555555554,2.1415625,1.7917625,1.3321,6.98295,1.6900501,0.09900001,-31.85625,-2.15625,16.25625
18.128654970760234,1.1688875,0.2932875,-0.1417625,19.650002,-3.24495,3.3730502,-32.456253,4.6875,17.34375
18.20175438596491,1.309275,-0.22385,0.083875,19.650002,-3.24495,3.3730502,-32.456253,4.6875,17.34375
18.27485380116959,2.1011374,-0.0259875,-0.292875,9.678,3.4150503,5.44005,-32.34375,10.856251,14.887501
18.34795321637427,2.1011374,-0.0259875,-0.292875,9.678,3.4150503,5.44005,-32.34375,10.856251,14.887501
18.421052631578945,3.175975,0.16775,-0.0374,10.08705,3.5460002,4.5940504,-32.34375,10.856251,14.887501
18.494152046783626,4.0709624,0.7264125,0.6744375,8.68395,2.028,2.091,-32.5875,14.587501,8.887501
18.567251461988302,3.403675,0.42845,0.8564875,9.47595,3.6660001,0.55605,-32.5875,14.587501,8.887501
18.640350877192983,3.403675,0.42845,0.8564875,9.47595,3.6660001,0.55605,-32.7,14.1,1.6125001
18.71345029239766,3.190825,0.421025,1.54825,8.953951,3.9750001,0.83205,-32.7,14.1,1.6125001
18.786549707602337,2.799225,0.4796,1.4513125,9.460051,1.98705,0.85095006,-32.7,14.1,1.6125001
18.859649122807017,2.799225,0.4796,1.4513125,9.460051,1.98705,0.85095006,-32.7,14.1,1.6125001
18.932748538011694,1.9745,0.2816,1.3363625,9.547951,-0.261,0.80805004,-32.943752,11.34375,-4.9125004
19.005847953216374,0.77825,-0.0556875,-0.4323,9.547951,-0.261,0.80805004,-32.943752,11.34375,-4.9125004
19.07894736842105,1.2337875,-0.656975,0.07425,8.587951,1.69305,-1.4280001,-33.787502,8.34375,-11.45625
19.152046783625728,1.2337875,-0.656975,0.07425,8.587951,1.69305,-1.4280001,-33.787502,8.34375,-11.45625
19.22514619883041,1.833975,-0.4005375,-0.1056,10.255051,-0.44295,1.7299501,-33.787502,8.34375,-11.45625
19.298245614035086,2.0596125,-0.8305,0.2998875,10.255051,-0.44295,1.7299501,-33.787502,8.34375,-11.45625
19.371345029239766,2.0596125,-0.8305,0.2998875,10.324051,-2.36595,-0.82500005,-34.3125,4.0125003,-15.6
19.444444444444443,1.4785374,-0.4728625,-0.1258125,10.09395,-3.1039503,-0.81705004,-34.3125,4.0125003,-15.6
19.517543859649123,2.08615,0.358325,0.344575,12.501,-0.165,1.2240001,-34.6875,-1.1437501,-16.6875
19.5906432748538,3.36435,0.7712375,-0.9037875,12.501,-0.165,1.2240001,-34.6875,-1.1437501,-16.6875
19.663742690058477,3.36435,0.7712375,-0.9037875,10.045951,-0.67800003,1.74405,-34.6875,-1.1437501,-16.6875
19.736842105263158,3.1993499,-0.2206875,0.146575,10.045951,-0.67800003,1.74405,-34.74375,-6.7875004,-14.587501
19.809941520467834,2.9887,-0.478225,0.5702125,10.444051,-0.615,1.5840001,-34.74375,-6.7875004,-14.587501
19.883040935672515,2.9887,-0.478225,0.5702125,10.444051,-0.615,1.5840001,-34.74375,-6.7875004,-14.587501
19.95614035087719,2.596,-0.06105,-0.078925,10.444051,-0.615,1.5840001,-35.04375,-10.44375,-9.7875
20.02923976608187,1.489125,0.39655,-0.783475,11.517,-3.0289502,0.37395,-35.04375,-10.44375,-9.7875
20.10233918128655,1.1039875,0.2198625,0.00825,11.517,-3.0289502,0.37395,-35.04375,-10.44375,-9.7875
20.175438596491226,0.48345,-0.9400875,0.6809,10.662001,-0.70905006,3.9600003,-35.287502,-11.64375,-3.54375
20.248538011695906,0.966625,-1.3189,-1.4730375,10.662001,-0.70905006,3.9600003,-35.287502,-11.64375,-3.54375
20.321637426900583,0.966625,-1.3189,-1.4730375,8.277,0.31305,0.19695,-35.287502,-11.64375,-3.54375
20.394736842105264,1.426425,0.39545,0.0039875,8.277,0.31305,0.19695,-35.4,-10.743751,3.6562502
20.46783625730994,1.426425,0.39545,0.0039875,8.277,0.31305,0.19695,-35.4,-10.743751,3.6562502
20.540935672514617,2.160675,0.634975,0.41593748,8.190001,-0.77295005,0.822,-35.4,-10.743751,3.6562502
20.614035087719298,2.095775,-0.5229125,-0.22687499,11.47095,-0.19095,3.0259502,-35.7,-7.6125,9.4125
20.687134502923975,1.6786,-0.1962125,0.0551375,8.799001,-0.69900006,1.38495,-35.7,-7.6125,9.4125
20.760233918128655,1.6786,-0.1962125,0.0551375,8.799001,-0.69900006,1.38495,-35.7,-7.6125,9.4125
20.833333333333332,1.66155,-0.0163625,0.0391875,8.799001,-0.69900006,1.38495,-35.456253,-3.05625,13.9875
20.90643274853801,1.0773125,0.2189,0.18493749,10.85595,-0.49605003,0.65400004,-35.456253,-3.05625,13.9875
20.97953216374269,1.3539625,0.4785,0.0540375,10.85595,-0.49605003,0.65400004,-35.456253,-3.05625,13.9875
21.052631578947366,2.2682,-0.2674375,0.3562625,10.915951,0.96405005,2.319,-34.987503,2.8875,16.25625
21.125730994152047,2.5309625,1.239425,0.24035,10.915951,0.96405005,2.319,-34.987503,2.8875,16.25625
21.198830409356724,2.5309625,1.239425,0.24035,9.393001,0.9670501,2.49405,-34.987503,2.8875,16.25625
21.2719298245614,2.9215999,0.20185,0.5138375,10.06995,0.39405003,0.49605003,-34.256252,9.056251,15.6
21.34502923976608,3.4505625,-1.083775,0.1892,10.06995,0.39405003,0.49605003,-34.256252,9.056251,15.6
21.418128654970758,3.4505625,-1.083775,0.1892,9.843,0.19305001,1.7200501,-34.256252,9.056251,15.6
21.49122807017544,3.502675,-1.386,-0.307725,9.4789505,0.53295004,4.1779504,-33.412502,14.45625,11.400001
21.564327485380115,2.80665,-0.6964375,-0.1683,9.4789505,0.53295004,4.1779504,-33.412502,14.45625,11.400001
21.637426900584796,0.54202497,0.1816375,0.50105,9.3810005,1.491,4.4770503,-33.412502,14.45625,11.400001
21.710526315789473,0.54202497,0.1816375,0.50105,8.437051,1.01205,-0.669,-33.300003,16.087502,5.34375
21.78362573099415,1.276275,0.8828875,-0.128975,8.437051,1.01205,-0.669,-33.300003,16.087502,5.34375
21.85672514619883,1.07415,1.1457875,-0.9334875,10.33395,3.04605,0.65895003,-33.112503,16.5,-0.7875
21.929824561403507,1.07415,1.1457875,-0.9334875,9.856951,1.8360001,-0.34995002,-33.112503,16.5,-0.7875
22.002923976608187,2.1564126,-0.610225,0.326425,9.25605,2.60505,1.4830501,-33.112503,16.5,-0.7875
22.076023391812864,3.1642876,0.289025,0.7799,9.25605,2.60505,1.4830501,-33.112503,16.5,-0.7875
22.14912280701754,3.7750626,0.00385,0.5042125,12.420001,2.7540002,0.19005,-32.7,15.6,-7.9875
22.22222222222222,3.7750626,0.00385,0.5042125,9.373051,5.5600505,0.48900002,-32.7,15.6,-7.9875
22.2953216374269,3.8037999,-0.8410875,0.0147125,10.10595,1.19895,0.40800002,-32.34375,11.587501,-13.44375
22.36842105263158,3.10145,-0.083325,-0.15345,10.10595,1.19895,0.40800002,-32.34375,11.587501,-13.44375
22.441520467836256,4.2348623,0.456225,-1.0751125,10.606951,0.93105006,-0.60705,-32.34375,11.587501,-13.44375
22.514619883040936,4.2348623,0.456225,-1.0751125,9.021001,-0.88095003,0.67095006,-32.34375,11.587501,-13.44375
22.587719298245613,4.0145874,1.2203125,-0.3152875,9.181951,-0.38505003,0.609,-32.34375,6.05625,-15.4125
22.66081871345029,3.69105,1.256475,-0.9334875,9.181951,-0.38505003,0.609,-31.987501,0.05625,-14.043751
22.73391812865497,3.69105,1.256475,-0.9334875,6.3169503,-0.915,0.68595004,-31.987501,0.05625,-14.043751
22.807017543859647,1.4114375,-0.0664125,0.9629125,11.48295,-0.84300005,2.058,-31.987501,0.05625,-14.043751
22.880116959064328,0.5685625,0.3817,-0.693,11.48295,-0.84300005,2.058,-31.987501,0.05625,-14.043751
22.953216374269005,-0.6540875,0.0666875,-0.3141875,9.88395,-0.33705002,0.87195003,-32.04375,-4.9125004,-10.6125
23.02631578947368,-0.6540875,0.0666875,-0.3141875,11.107051,-4.56195,-1.5979501,-32.04375,-4.9125004,-10.6125
23.099415204678362,1.1336875,-0.573925,-0.618475,11.107051,-4.56195,-1.5979501,-32.7,-7.5000005,-4.6125
23.17251461988304,2.2724626,1.0712625,0.409475,13.29705,4.0729504,6.0049505,-32.7,-7.5000005,-4.6125
23.24561403508772,2.2724626,1.0712625,0.409475,13.29705,4.0729504,6.0049505,-32.7,-7.5000005,-4.6125
23.318713450292396,3.1398125,1.173425,0.869275,13.29705,4.0729504,6.0049505,-32.5125,-8.2875,1.5562501
23.391812865497073,3.1398125,1.173425,0.869275,9.036,0.35805002,2.1660001,-32.5125,-8.2875,1.5562501
23.464912280701753,3.4122,-0.0301125,0.8149625,9.21105,1.33605,3.8610003,-32.5125,-8.2875,1.5562501
23.53801169590643,1.8701375,-1.1688875,0.0147125,9.21105,1.33605,3.8610003,-32.8125,-7.0125003,7.2562504
23.61111111111111,1.343375,-0.117425,0.0721875,9.21105,1.33605,3.8610003,-32.8125,-7.0125003,7.2562504
23.684210526315788,1.343375,-0.117425,0.0721875,10.602,-0.86205006,2.50305,-32.8125,-7.0125003,7.2562504
23.757309941520468,1.6732374,0.2869625,0.0242,8.146951,-0.82800007,2.5489502,-32.8125,-7.0125003,7.2562504
23.830409356725145,2.0383,0.685025,0.246675,10.02495,-0.73005,0.26205,-33.05625,-2.5125,11.94375
23.903508771929822,1.9212875,1.206425,0.296725,10.02495,-0.73005,0.26205,-33.05625,-2.5125,11.94375
23.976608187134502,1.9212875,1.206425,0.296725,10.02495,-0.73005,0.26205,-32.8875,3.54375,15.3
24.04970760233918,2.342725,-0.2525875,0.9436625,8.746051,-0.49305,-0.93495005,-32.8875,3.54375,15.3
24.12280701754386,2.6618624,-1.69455,1.0500875,8.746051,-0.49305,-0.93495005,-32.8875,3.54375,15.3
24.195906432748536,2.6618624,-1.69455,1.0500875,11.2890005,-0.78795004,2.59695,-32.5125,10.200001,13.556251
24.269005847953213,3.305775,-2.5641,0.8969125,10.14,1.32105,3.7420502,-32.5125,10.200001,13.556251
24.342105263157894,3.0716126,-1.69785,0.0572,8.899051,0.141,0.84795004,-32.100002,16.087502,8.043751
24.41520467836257,1.85955,0.8041,-1.5475625,8.899051,0.141,0.84795004,-32.100002,16.087502,8.043751
24.48830409356725,1.4370124,2.4058375,-1.0995874,8.93295,-0.61995006,2.63295,-32.100002,16.087502,8.043751
24.561403508771928,1.4370124,2.4058375,-1.0995874,8.93295,-0.61995006,2.63295,-32.100002,16.087502,8.043751
24.63450292397661,1.1242,1.34475,-0.295075,8.83695,-0.642,-1.764,-32.456253,18.7875,2.1000001
24.707602339181285,2.9514375,-0.134475,0.2349875,8.83695,-0.642,-1.764,-32.456253,18.7875,2.1000001
24.780701754385962,2.8428125,-0.91025,0.4978875,11.158051,0.73905003,0.55395,-32.456253,18.7875,2.1000001
24.853801169590643,3.533475,-0.6942375,0.5765375,11.158051,0.73905003,0.55395,-31.3875,18.0,-5.64375
24.92690058479532,3.533475,-0.6942375,0.5765375,11.158051,0.73905003,0.55395,-31.3875,18.0,-5.64375
25.0,2.3926375,-0.7453875,0.6584875,9.948001,5.043,1.4779501,-30.656252,15.3,-12.543751
25.073099415204677,1.6572875,1.6236,-0.324775,9.25605,2.7919502,-0.48195,-30.656252,15.3,-12.543751
25.146198830409354,3.632475,-0.4505875,-0.1087625,9.25605,2.7919502,-0.48195,-30.656252,15.3,-12.543751
25.219298245614034,4.598825,0.2880625,0.7500625,9.25605,2.7919502,-0.48195,-30.187502,10.14375,-16.0125
25.29239766081871,3.2184625,0.617925,-0.41525,7.1460004,-0.55995005,-1.4899501,-30.187502,10.14375,-16.0125
25.36549707602339,3.2184625,0.617925,-0.41525,7.4929504,-0.44295,3.18405,-30.4125,3.24375,-17.34375
25.43859649122807,1.5371125,-0.2696375,0.1211375,5.985,-0.26805001,1.43295,-30.656252,-3.0,-15.95625
25.51169590643275,0.64735,-1.0943625,1.35025,5.985,-0.26805001,1.43295,-30.656252,-3.0,-15.95625
25.584795321637426,0.64735,-1.0943625,1.35025,12.267,-1.8370501,1.3969501,-31.2,-7.55625,-11.043751
25.657894736842103,2.0106626,-0.823075,-0.2024,12.142051,-1.7580001,1.3080001,-31.2,-7.55625,-11.043751
25.730994152046783,2.0106626,-0.823075,-0.2024,9.426001,-4.07595,-0.55395,-31.2,-7.55625,-11.043751
25.80409356725146,2.178825,-0.3738625,-1.176175,9.426001,-4.07595,-0.55395,-31.2,-7.55625,-11.043751
25.87719298245614,1.964875,-0.0908875,-0.8696875,8.254951,0.48495004,0.76695,-31.743752,-10.3125,-4.2562504
25.950292397660817,1.964875,-0.0908875,-0.8696875,11.87895,-3.4650002,-0.05805,-31.743752,-10.3125,-4.2562504
26.023391812865494,2.6618624,0.7701375,0.197725,11.87895,-3.4650002,-0.05805,-30.54375,-10.14375,2.6437502
26.096491228070175,2.0053,0.9477875,0.0232375,9.850051,-0.52695,-1.023,-30.54375,-10.14375,2.6437502
26.16959064327485,1.833975,0.46145,0.23815,9.850051,-0.52695,-1.023,-30.54375,-10.14375,2.6437502
26.242690058479532,1.833975,0.46145,0.23815,9.850051,-0.52695,-1.023,-30.956251,-7.3125005,10.14375
26.31578947368421,0.608025,-0.263175,-0.2960375,7.5840006,1.2280501,-0.264,-30.956251,-7.3125005,10.14375
26.388888888888886,1.79465,0.7019375,0.0902,9.73995,-0.24195,0.633,-31.25625,-1.25625,15.000001
26.461988304093566,3.4005125,0.619025,-0.1067,9.73995,-0.24195,0.633,-31.25625,-1.25625,15.000001
26.535087719298243,2.946075,0.407275,-0.5663625,12.472951,-1.45395,-0.20400001,-31.25625,-1.25625,15.000001
26.608187134502923,2.946075,0.407275,-0.5663625,10.06095,1.17795,-0.171,-31.25625,-1.25625,15.000001
26.6812865497076,3.03545,-0.004675,0.214775,10.06095,1.17795,-0.171,-31.087502,5.8875003,15.95625
26.75438596491228,3.0727124,-0.32285,0.43505,10.56105,0.57195,0.76005006,-31.087502,5.8875003,15.95625
26.827485380116958,3.0727124,-0.32285,0.43505,10.56105,0.57195,0.76005006,-31.087502,5.8875003,15.95625
26.900584795321635,2.3564749,0.2476375,0.148775,10.56105,0.57195,0.76005006,-30.54375,12.243751,13.8
26.973684210526315,1.6317124,0.5764,-0.4098875,10.354951,2.1070502,2.8200002,-30.54375,12.243751,13.8
27.046783625730992,1.6317124,0.5764,-0.4098875,10.354951,2.1070502,2.8200002,-30.54375,12.243751,13.8
27.119883040935672,1.541375,0.730675,-0.1651375,10.354951,2.1070502,2.8200002,-29.94375,16.556252,8.400001
27.19298245614035,1.541375,0.730675,-0.1651375,9.936001,0.9670501,1.3609501,-29.94375,16.556252,8.400001
27.266081871345026,1.56365,0.0677875,0.28393748,9.474,2.7850502,1.90005,-29.94375,16.556252,8.400001
27.339181286549707,3.013175,-0.427075,0.07645,9.474,2.7850502,1.90005,-28.85625,17.75625,0.65625
27.412280701754383,3.013175,-0.427075,0.07645,9.474,2.7850502,1.90005,-28.85625,17.75625,0.65625
27.485380116959064,2.8502374,-0.05995,0.344575,11.409,-0.47895002,0.123,-28.85625,17.75625,0.65625
27.55847953216374,2.6874375,0.4444,0.5872625,11.409,-0.47895002,0.123,-28.85625,17.75625,0.65625
27.63157894736842,1.541375,-0.1398375,0.4808375,10.411051,1.6330501,1.8589501,-28.143751,16.556252,-7.2000003
27.704678362573098,1.541375,-0.1398375,0.4808375,10.795951,0.54495,1.9189501,-28.143751,16.556252,-7.2000003
27.777777777777775,1.0379875,-0.332475,-0.9015875,9.991051,0.99300003,-0.039,-28.3875,12.4875,-13.856251
27.850877192982455,1.3827,-0.0727375,0.393525,9.991051,0.99300003,-0.039,-28.3875,12.4875,-13.856251
27.923976608187132,2.899325,0.07205,-1.0538,9.699,-0.96495,-0.04905,-28.3875,12.4875,-13.856251
27.997076023391813,3.3345125,-0.608025,-0.0108625,9.699,-0.96495,-0.04905,-29.04375,7.0875,-18.65625
28.07017543859649,3.8974376,-0.329175,-0.25355,13.432951,-0.04005,1.248,-29.04375,7.0875,-18.65625
28.143274853801167,3.6378374,0.3529625,-0.5600375,13.432951,-0.04005,1.248,-29.04375,7.0875,-18.65625
28.216374269005847,3.680325,0.9585125,-0.9994875,8.90205,-1.116,-0.82500005,-29.1,-0.1125,-19.85625
28.289473684210524,3.20045,0.763675,-0.3524125,8.90205,-1.116,-0.82500005,-29.1,-0.1125,-19.85625
28.362573099415204,3.20045,0.763675,-0.3524125,10.129951,-0.33,-0.77400005,-29.212502,-6.6000004,-17.04375
28.43567251461988,0.9114875,0.4158,0.334125,10.129951,-0.33,-0.77400005,-29.212502,-6.6000004,-17.04375
28.508771929824558,0.6081625,0.568975,0.9205625,9.924001,-2.4090002,-0.59205,-29.212502,-6.6000004,-17.04375
28.58187134502924,0.6837875,0.6892875,0.416075,9.924001,-2.4090002,-0.59205,-29.2875,-10.8,-11.043751
28.654970760233915,0.6837875,0.6892875,0.416075,10.078051,-3.1039503,-1.023,-29.2875,-10.8,-11.043751
28.728070175438596,1.0253375,0.40507498,0.3213375,7.077,0.67200005,-1.42305,-29.400002,-12.4875,-3.9562502
28.801169590643273,0.9339,0.7189875,0.042625,10.734,-1.45095,0.20400001,-29.400002,-12.4875,-3.9562502
28.874269005847953,0.975425,0.62535,0.8067125,10.734,-1.45095,0.20400001,-29.400002,-12.4875,-3.9562502
28.94736842105263,0.795575,0.127325,0.3650625,11.158051,-2.9580002,0.90105003,-30.487501,-11.700001,3.54375
29.020467836257307,0.98285,-0.28765,0.1192125,11.158051,-2.9580002,0.90105003,-30.487501,-11.700001,3.54375
29.093567251461987,0.98285,-0.28765,0.1192125,8.44905,-0.79005,2.805,-30.487501,-11.700001,3.54375
29.166666666666664,1.5554,-0.528275,0.4225375,8.44905,-0.79005,2.805,-31.800001,-8.887501,10.087501
29.239766081871345,2.7377625,-0.9486125,0.1032625,9.10305,0.09,2.90295,-31.800001,-8.887501,10.087501
29.31286549707602,2.87815,-0.9964625,-0.1489125,9.10305,0.09,2.90295,-31.800001,-8.887501,10.087501
29.3859649122807,2.87815,-0.9964625,-0.1489125,9.10305,0.09,2.90295,-32.5125,-3.6000001,14.812501
29.45906432748538,2.68345,0.046475,-0.185075,14.602051,-5.9830503,3.07095,-32.5125,-3.6000001,14.812501
29.532163742690056,3.526325,0.929775,-0.5885,9.37605,0.06900001,2.21805,-32.5125,2.8125,17.7
29.605263157894736,3.7093375,-0.58355,0.66728747,9.37605,0.06900001,2.21805,-32.5125,2.8125,17.7
29.678362573099413,3.7093375,-0.58355,0.66728747,7.1320505,-0.19395001,1.3039501,-32.5125,2.8125,17.7
29.751461988304094,2.870725,-0.3441625,0.40865,8.811001,2.5740001,2.901,-32.5125,2.8125,17.7
29.82456140350877,1.791625,0.3188625,0.336325,8.811001,2.5740001,2.901,-32.7,9.900001,16.743752
29.897660818713447,1.791625,0.3188625,0.336325,10.108951,1.6180501,2.187,-32.7,9.900001,16.743752
29.970760233918128,1.4669875,0.42955,0.106425,10.108951,1.6180501,2.187,-32.456253,15.3,10.9125
30.043859649122805,1.1616,-0.1111,-0.0031625,9.181951,-0.12195001,1.12605,-32.456253,15.3,10.9125
30.116959064327485,1.1328624,0.5786,-0.285175,9.181951,-0.12195001,1.12605,-32.456253,15.3,10.9125
30.190058479532162,0.6593125,0.1953875,-0.499125,9.181951,-0.12195001,1.12605,-32.4,18.0,3.4125001
30.26315789473684,1.6831375,-0.2589125,-0.564025,10.36995,-0.05505,2.14905,-32.4,18.0,3.4125001
30.33625730994152,1.6831375,-0.2589125,-0.564025,10.36995,-0.05505,2.14905,-32.4,18.0,3.4125001
30.409356725146196,1.3479125,0.5061375,1.0494,7.7880006,2.5860002,3.9720001,-32.2125,18.84375,-4.2000003
30.482456140350877,1.96185,-0.39833748,1.1111375,10.738951,1.06305,0.04905,-32.2125,18.84375,-4.2000003
30.555555555555554,2.1949124,-1.116775,-0.0925375,10.738951,1.06305,0.04905,-32.2125,18.84375,-4.2000003
30.62865497076023,2.1949124,-1.116775,-0.0925375,10.738951,1.06305,0.04905,-31.612501,17.04375,-10.9875
30.70175438596491,2.447225,-1.4232625,-0.0617375,11.722951,2.8210502,2.01495,-31.612501,17.04375,-10.9875
30.774853801169588,2.6345,0.257125,-0.79805,9.967051,0.27495003,-0.063,-30.956251,13.312501,-16.743752
30.84795321637427,1.8555624,1.126675,-0.498025,9.967051,0.27495003,-0.063,-30.956251,13.312501,-16.743752
30.921052631578945,2.624875,0.864875,-0.17765,10.132951,-0.096,-0.38205,-30.956251,13.312501,-16.743752
30.994152046783626,3.7327125,1.3649625,0.223575,7.8910503,-0.63405,-1.71105,-30.956251,13.312501,-16.743752
31.067251461988302,3.7327125,1.3649625,0.223575,11.127001,-0.31800002,0.60405004,-31.25625,7.74375,-19.9125
31.14035087719298,2.9634,-0.6675625,0.54175,11.127001,-0.31800002,0.60405004,-31.25625,7.74375,-19.9125
31.21345029239766,2.9634,-0.6675625,0.54175,8.65995,2.22195,1.15695,-31.312502,0.84375006,-21.35625
31.286549707602337,2.0406375,-1.1529375,0.829125,8.65995,2.22195,1.15695,-31.312502,0.84375006,-21.35625
31.359649122807017,1.7512,-0.81455,0.3405875,8.260051,0.864,1.4110501,-31.312502,0.84375006,-21.35625
31.432748538011694,1.8874625,0.1731125,-0.201025,10.08195,-2.74005,1.8280501,-31.85625,-5.0437503,-18.54375
31.50584795321637,1.6638875,0.751025,-0.545875,9.807,-1.9399501,1.16205,-31.85625,-5.0437503,-18.54375
31.57894736842105,1.006225,0.0677875,-0.12979999,10.108951,-2.31795,-0.73605,-32.15625,-8.75625,-12.056251
31.652046783625728,0.91368747,-0.58245,-0.7129375,10.108951,-2.31795,-0.73605,-32.15625,-8.75625,-12.056251
31.72514619883041,1.3649625,-0.3058,-0.67045,11.14305,-4.1599503,-0.49695003,-32.15625,-8.75625,-12.056251
31.798245614035086,1.3649625,-0.3058,-0.67045,11.14305,-4.1599503,-0.49695003,-32.15625,-8.75625,-12.056251
31.871345029239766,1.5926625,0.3444375,0.34485,12.12495,-4.21005,0.039,-32.456253,-10.3125,-5.0437503
31.944444444444443,1.5543,0.64556247,0.8525,12.12495,-4.21005,0.039,-32.456253,-10.3125,-5.0437503
32.01754385964912,1.4510375,-0.19305,-0.2905375,8.157001,1.05795,-0.10395,-33.0,-10.9875,2.4562502
32.0906432748538,2.3482249,-0.28985,0.0979,7.5700502,1.6110001,-0.95595,-33.0,-10.9875,2.4562502
32.16374269005848,4.032875,-0.3377,0.2512125,9.39,-2.32305,2.9869502,-33.600002,-7.9875,9.0
32.23684210526316,3.66465,-1.1592625,0.7269625,13.849951,-4.071,2.3380501,-33.956253,-2.5125,13.8
32.30994152046784,3.66465,-1.1592625,0.7269625,13.849951,-4.071,2.3380501,-33.956253,-2.5125,13.8
32.38304093567251,2.9836125,-0.5878125,0.7992875,9.948001,1.09605,4.1779504,-33.300003,4.2000003,14.75625
32.45614035087719,2.594075,0.1071125,0.6331875,9.948001,1.09605,4.1779504,-33.300003,4.2000003,14.75625
32.52923976608187,2.78135,-0.3898125,0.28105,10.22595,-0.546,0.16800001,-33.300003,4.2000003,14.75625
32.602339181286546,1.7395124,-0.7409875,-0.2490125,10.22595,-0.546,0.16800001,-32.8875,11.043751,12.843751
32.675438596491226,1.7395124,-0.7409875,-0.2490125,10.22595,-0.546,0.16800001,-32.8875,11.043751,12.843751
32.748538011695906,0.8658375,0.2635875,-0.1830125,9.714001,-1.21395,3.6100502,-32.8875,11.043751,12.843751
32.82163742690058,-0.073975,0.9383,-0.21285,9.714001,-1.21395,3.6100502,-32.2125,15.543751,7.55625
32.89473684210526,0.385825,-0.0897875,-0.83105,9.156,0.19605,1.18605,-32.2125,15.543751,7.55625
32.96783625730994,2.8601375,0.356125,-0.5330875,9.156,0.19605,1.18605,-32.2125,15.543751,7.55625
33.04093567251462,2.8601375,0.356125,-0.5330875,9.156,0.19605,1.18605,-32.34375,17.587502,0.71250004
33.114035087719294,2.676025,-0.5451875,0.0691625,10.375051,0.52395004,-0.94395006,-32.34375,17.587502,0.71250004
33.187134502923975,2.4205499,-0.1408,0.792825,10.375051,0.52395004,-0.94395006,-32.34375,17.587502,0.71250004
33.260233918128655,1.8596874,0.1188,0.6450125,11.84805,3.486,0.91995007,-32.34375,17.34375,-6.05625
33.33333333333333,1.8596874,0.1188,0.6450125,11.84805,3.486,0.91995007,-32.34375,17.34375,-6.05625
33.40643274853801,1.57135,-0.0897875,-0.3298625,11.25405,1.23705,1.3110001,-32.34375,17.34375,-6.05625
33.47953216374269,1.83535,-0.9730875,-1.1215875,11.25405,1.23705,1.3110001,-32.34375,17.34375,-6.05625
33.55263157894737,1.5246,0.00605,-0.0254375,9.75195,0.303,-0.95895004,-32.643753,15.543751,-12.4125
33.62573099415204,3.89345,0.636075,-0.47355,9.340051,-2.301,-1.54305,-32.643753,15.543751,-12.4125
33.698830409356724,3.89345,0.636075,-0.47355,9.340051,-2.301,-1.54305,-32.5125,11.043751,-17.1
33.771929824561404,4.343625,0.1837,0.0724625,9.340051,-2.301,-1.54305,-32.5125,11.043751,-17.1
33.84502923976608,3.8955126,-0.2600125,0.1926375,12.750001,2.16405,0.25005,-32.5125,11.043751,-17.1
33.91812865497076,3.8955126,-0.2600125,0.1926375,12.750001,2.16405,0.25005,-32.5875,4.14375,-19.6875
33.99122807017544,3.46665,-0.266475,0.5215375,9.31095,-0.48105,1.4779501,-32.5875,4.14375,-19.6875
34.06432748538011,2.5249126,0.0539,-0.123475,9.31095,-0.48105,1.4779501,-32.7,-2.8125,-18.243752
34.13742690058479,1.1339625,0.82335,0.0276375,8.272051,-0.771,0.90795004,-32.7,-2.8125,-18.243752
34.21052631578947,1.1339625,0.82335,0.0276375,8.272051,-0.771,0.90795004,-32.7,-2.8125,-18.243752
34.28362573099415,-0.283525,-0.004675,0.220275,8.272051,-0.771,0.90795004,-32.756252,-7.55625,-13.14375
34.356725146198826,-0.4750625,-0.0875875,0.1639,10.35795,-2.9550002,-0.42705002,-32.756252,-7.55625,-13.14375
34.42982456140351,-0.103675,0.2135375,-0.434225,9.7570505,-3.1519501,-1.3420501,-32.8875,-9.1875,-6.4875
34.50292397660819,-0.03245,-0.3185875,-0.86515,9.7570505,-3.1519501,-1.3420501,-32.8875,-9.1875,-6.4875
34.57602339181286,-0.03245,-0.3185875,-0.86515,9.153001,-3.90105,-1.3800001,-32.8875,-9.1875,-6.4875
34.64912280701754,0.8870125,0.13695,0.2415875,11.80395,0.423,1.6720501,-32.8875,-9.1875,-6.4875
34.72222222222222,1.76715,-0.3568125,-1.151425,11.004001,-2.60595,1.3990501,-33.05625,-9.712501,0.1125
34.7953216374269,2.1300125,0.211475,0.3969625,11.004001,-2.60595,1.3990501,-33.05625,-9.712501,0.1125
34.868421052631575,2.1300125,0.211475,0.3969625,10.411051,-1.6789501,2.1990001,-33.412502,-9.900001,7.0875
34.941520467836256,2.4046,0.7744,1.384625,9.004951,-0.28695002,2.877,-33.412502,-9.900001,7.0875
35.014619883040936,2.4003375,0.472175,0.74387497,9.141001,-0.87405,2.9989502,-33.412502,-9.900001,7.0875
35.08771929824561,2.4003375,0.472175,0.74387497,6.7200003,1.146,0.74505,-33.112503,-7.55625,13.087501
35.16081871345029,3.9115999,-0.0089375,0.008525,6.7200003,1.146,0.74505,-33.112503,-7.55625,13.087501
35.23391812865497,4.4765873,-0.3069,-0.2990625,6.7200003,1.146,0.74505,-33.112503,-3.24375,17.643751
35.307017543859644,4.5904374,-0.411125,0.286275,9.868951,1.3570501,1.2750001,-33.112503,-3.24375,17.643751
35.380116959064324,3.388,-0.2855875,0.54175,9.868951,1.3570501,1.2750001,-33.112503,-3.24375,17.643751
35.453216374269005,2.742025,0.34553748,0.2299,8.940001,1.6519501,1.77495,-33.112503,-3.24375,17.643751
35.526315789473685,1.825725,-0.0493625,0.31075,11.251051,-0.69900006,3.63105,-32.8125,3.7875001,19.85625
35.59941520467836,1.6596249,-0.6527125,0.6364875,10.486951,-0.72795004,2.6140501,-32.8125,3.7875001,19.85625
35.67251461988304,1.2989625,-0.6644,0.010725,10.486951,-0.72795004,2.6140501,-32.8875,10.14375,16.5
35.74561403508772,0.7689,-0.4739625,-0.499125,9.63195,0.14805001,1.31505,-32.8875,10.14375,16.5
35.81871345029239,0.975425,-0.233475,-0.1607375,10.20495,2.08095,1.8180001,-32.943752,13.25625,10.200001
35.89181286549707,0.72214997,0.093225,-0.58959997,10.135051,0.70605004,1.062,-32.943752,13.25625,10.200001
35.96491228070175,2.0767999,-0.7442875,-0.7800375,10.135051,0.70605004,1.062,-32.943752,13.25625,10.200001
36.038011695906434,2.1641126,0.374275,-0.169125,9.642,0.45405003,0.06,-33.05625,14.043751,3.6562502
36.11111111111111,1.8203624,1.273525,0.57145,9.642,0.45405003,0.06,-33.05625,14.043751,3.6562502
36.18421052631579,1.8044125,1.0553125,0.58959997,9.55095,3.7909503,-1.74705,-33.1875,13.9125,-3.0
36.25730994152047,1.9842625,0.1720125,0.3383875,10.068001,1.6849501,0.966,-33.1875,13.9125,-3.0
36.33040935672514,2.2790625,-0.0493625,-0.269225,10.068001,1.6849501,0.966,-33.1875,13.9125,-3.0
36.40350877192982,2.2790625,-0.0493625,-0.269225,10.03005,1.13205,-2.3410501,-33.24375,12.900001,-9.1875
36.4766081871345,2.1140625,0.3359125,-0.5278625,10.03005,1.13205,-2.3410501,-33.24375,12.900001,-9.1875
36.54970760233918,3.4645875,0.4338125,-0.47465,9.811951,0.26700002,0.41700003,-33.24375,10.14375,-14.75625
36.622807017543856,3.3166375,0.5146625,0.1522125,9.811951,0.26700002,0.41700003,-33.24375,10.14375,-14.75625
36.69590643274854,3.0696874,0.534875,0.075625,8.985001,-0.555,1.866,-33.24375,10.14375,-14.75625
36.76900584795322,3.0696874,0.534875,0.075625,8.985001,-0.555,1.866,-33.112503,4.9875,-19.087502
36.84210526315789,2.772825,0.781825,0.0649,8.985001,-0.555,1.866,-33.112503,4.9875,-19.087502
36.91520467836257,1.0987625,0.56581247,0.645975,10.8820505,1.16805,1.7730001,-33.0,-2.6437502,-19.800001
36.98830409356725,0.2847625,-0.5644375,0.7099125,10.108951,0.62700003,0.08895,-33.0,-2.6437502,-19.800001
37.061403508771924,0.2847625,-0.5644375,0.7099125,10.108951,0.62700003,0.08895,-33.0,-2.6437502,-19.800001
37.134502923976605,1.08185,-0.3653375,-0.2490125,10.108951,0.62700003,0.08895,-32.8875,-8.64375,-15.900001
37.207602339181285,1.86285,-0.544225,-0.2809125,9.771001,0.078,0.24495001,-32.8875,-8.64375,-15.900001
37.280701754385966,-0.0930875,-2.1330376,-2.5062125,11.31795,-0.67800003,0.192,-32.8875,-8.64375,-15.900001
37.35380116959064,-0.0930875,-2.1330376,-2.5062125,11.31795,-0.67800003,0.192,-33.35625,-12.6,-10.5
37.42690058479532,2.079,0.2146375,0.907775,9.967051,1.077,1.02795,-33.35625,-12.6,-10.5
37.5,-1.1594,1.4320625,0.304425,10.61205,1.82895,-0.06495,-33.35625,-12.6,-10.5
37.57309941520467,1.8895249,1.650275,1.3781625,10.61205,1.82895,-0.06495,-33.300003,-15.1125,-3.7875001
37.646198830409354,0.4752,-0.165275,-0.2011625,11.29395,-0.49995002,-2.0959501,-33.300003,-15.1125,-3.7875001
37.719298245614034,2.475825,0.2072125,0.53845,7.4220004,5.08395,-0.92295,-32.456253,-16.2,3.6000001
37.792397660818715,1.9097375,-0.1120625,0.37785,7.4220004,5.08395,-0.92295,-32.456253,-16.2,3.6000001
37.86549707602339,1.691525,-0.051425,0.1288375,11.47095,2.739,4.839,-32.456253,-16.2,3.6000001
37.93859649122807,1.691525,-0.051425,0.1288375,11.47095,2.739,4.839,-32.456253,-16.2,3.6000001
38.01169590643275,3.589025,-0.0748,0.6886,9.10005,1.7329501,2.2810502,-32.643753,-14.512501,9.243751
38.08479532163742,3.1772125,-1.508375,0.8226625,9.10005,1.7329501,2.2810502,-32.643753,-10.9875,14.45625
38.1578947368421,3.1772125,-1.508375,0.8226625,15.627001,-5.0149503,-2.8170002,-32.643753,-10.9875,14.45625
38.23099415204678,3.17075,-0.4378,-0.0669625,15.627001,-5.0149503,-2.8170002,-32.643753,-10.9875,14.45625
38.304093567251456,2.0065374,0.766975,-0.8289875,11.11005,-1.5010501,0.46500003,-32.643753,-10.9875,14.45625
38.37719298245614,1.65,1.1213125,-0.3372875,11.404051,2.7850502,3.2269502,-32.756252,-4.8562503,17.587502
38.45029239766082,1.4755125,0.49774998,0.5864375,8.920951,-2.3779502,0.69495004,-32.756252,-4.8562503,17.587502
38.5233918128655,2.2056375,-0.2855875,0.5247,8.920951,-2.3779502,0.69495004,-32.756252,2.6437502,16.987501
38.59649122807017,2.2939124,-0.458975,0.2756875,8.920951,-2.3779502,0.69495004,-32.756252,2.6437502,16.987501
38.66959064327485,1.4521375,-0.4090625,0.173525,10.62405,-0.97200006,1.368,-32.756252,2.6437502,16.987501
38.74269005847953,1.4521375,-0.4090625,0.173525,10.62405,-0.97200006,1.368,-32.756252,2.6437502,16.987501
38.815789473684205,0.7167875,-0.2770625,-0.562925,10.056001,1.8409501,4.1680503,-32.756252,8.587501,12.95625
38.888888888888886,2.101275,-0.4324375,-1.315325,10.056001,1.8409501,4.1680503,-32.756252,8.587501,12.95625
38.961988304093566,2.101275,-0.4324375,-1.315325,9.193951,0.02595,1.3230001,-31.987501,13.012501,7.6125
39.03508771929825,2.315225,-0.3069,-0.57035,9.193951,0.02595,1.3230001,-31.987501,13.012501,7.6125
39.10818713450292,2.460975,1.7428125,0.824725,8.77005,3.35505,-0.67095006,-31.987501,13.012501,7.6125
39.1812865497076,2.460975,1.7428125,0.824725,12.858001,2.94495,-2.76195,-32.04375,15.712501,0.95625
39.25438596491228,2.985675,-0.1057375,0.303325,12.858001,2.94495,-2.76195,-32.04375,15.712501,0.95625
39.327485380116954,2.9217374,-0.88467497,-0.0213125,8.884951,3.3019502,-2.38905,-32.5875,16.0125,-6.3562503
39.400584795321635,2.574825,-0.5143875,-0.5768125,8.884951,3.3019502,-2.38905,-32.5875,16.0125,-6.3562503
39.473684210526315,2.574825,-0.5143875,-0.5768125,9.472051,3.1009502,-1.5649501,-32.5875,16.0125,-6.3562503
39.546783625730995,4.64365,1.0074625,0.336325,9.706051,0.39705002,1.5619501,-32.5875,16.0125,-6.3562503
39.61988304093567,4.0775623,0.4125,-0.6342875,9.46695,-0.76605004,1.6840501,-31.987501,14.2875,-12.543751
39.69298245614035,2.9409876,0.0400125,-0.1852125,9.46695,-0.76605004,1.6840501,-31.987501,14.2875,-12.543751
39.76608187134503,2.9409876,0.0400125,-0.1852125,8.104051,-0.22995001,0.42705002,-31.800001,9.65625,-16.743752
39.8391812865497,1.9256874,-0.1057375,-0.3320625,12.24705,-2.63205,-0.47700003,-31.800001,9.65625,-16.743752
39.91228070175438,1.0742875,0.4147,0.46928748,10.000951,-0.984,-1.14795,-31.556252,3.05625,-16.987501
39.985380116959064,0.4538875,0.75734997,0.6098125,10.000951,-0.984,-1.14795,-31.556252,3.05625,-16.987501
40.05847953216374,-0.6433625,0.747725,0.44701248,11.086051,-0.30405003,-2.2399502,-31.556252,3.05625,-16.987501
40.13157894736842,-0.6433625,0.747725,0.44701248,7.8,-0.23205002,-2.331,-31.556252,-3.4125001,-13.9875
40.2046783625731,0.71995,-0.2121625,0.8853625,7.8,-0.23205002,-2.331,-31.556252,-3.4125001,-13.9875
40.27777777777778,0.791175,-0.9293625,-0.0638,12.19005,1.848,5.2270503,-31.556252,-3.4125001,-13.9875
40.35087719298245,2.446125,1.0553125,0.5108125,12.19005,1.848,5.2270503,-31.687502,-8.887501,-9.6
40.42397660818713,2.4365,0.82225,0.53955,13.953001,1.623,8.160001,-31.687502,-8.887501,-9.6
40.49707602339181,2.4365,0.82225,0.53955,9.651,-2.4810002,0.59205,-31.687502,-8.887501,-9.6
40.570175438596486,2.2407,0.49665,0.5597625,9.651,-2.4810002,0.59205,-31.687502,-8.887501,-9.6
40.64327485380117,1.5318875,0.4412375,1.2227875,9.14805,-0.56700003,2.59695,-32.287502,-12.656251,-3.54375
40.71637426900585,1.947,0.2561625,0.8471375,9.14805,-0.56700003,2.59695,-32.8875,-14.1,2.04375
40.78947368421053,1.947,0.2561625,0.8471375,8.920951,-1.1520001,4.1389503,-32.8875,-14.1,2.04375
40.8625730994152,2.74505,0.3592875,1.309,8.722051,-2.62905,2.19705,-32.8875,-14.1,2.04375
40.93567251461988,2.68345,-0.215325,0.6428125,8.722051,-2.62905,2.19705,-32.8875,-14.1,2.04375
41.00877192982456,2.68345,-0.215325,0.6428125,8.193001,0.09495001,3.6769502,-33.65625,-12.1125,7.55625
41.081871345029235,2.7270374,-0.4398625,1.3728,8.193001,0.09495001,3.6769502,-33.65625,-12.1125,7.55625
41.154970760233915,2.5982,-0.4005375,1.09615,9.939,-1.50405,3.6190503,-34.3875,-7.8,12.0
41.228070175438596,2.5982,-0.4005375,1.09615,9.939,-1.50405,3.6190503,-34.3875,-7.8,12.0
41.30116959064327,2.3513875,-1.14015,0.8619875,10.09395,-1.2430501,3.8569503,-34.3875,-7.8,12.0
41.37426900584795,2.6024625,-2.0499876,0.67265,8.871,-1.9039501,4.491,-34.3875,-7.8,12.0
41.44736842105263,1.947,-2.4671624,0.0468875,9.43095,0.03495,5.60295,-34.3875,-0.95625,12.843751
41.52046783625731,1.6075125,-1.36895,-0.2149125,9.43095,0.03495,5.60295,-34.3875,-0.95625,12.843751
41.593567251461984,0.6688,-0.0471625,-0.54065,9.43095,0.03495,5.60295,-33.956253,6.6000004,9.900001
41.666666666666664,0.5273125,0.488125,-0.11605,9.967051,-0.70905006,2.2399502,-33.956253,6.6000004,9.900001
41.739766081871345,1.9012125,0.69025,-0.644875,9.967051,-0.70905006,2.2399502,-33.956253,6.6000004,9.900001
41.81286549707602,1.9012125,0.69025,-0.644875,9.028951,-0.13395001,-1.51005,-33.956253,6.6000004,9.900001
41.8859649122807,0.33261248,-0.45155,-0.12979999,9.028951,-0.13395001,-1.51005,-34.3125,12.4125,5.7562504
41.95906432748538,2.91115,0.16665,-0.2319625,10.104,0.30600002,2.3449502,-34.3125,12.4125,5.7562504
42.03216374269006,1.920325,-0.6942375,0.2607,10.104,0.30600002,2.3449502,-34.3125,17.212502,1.25625
42.10526315789473,2.7163124,-0.47079998,0.1926375,10.35795,0.165,2.26605,-34.3125,17.212502,1.25625
42.17836257309941,2.7163124,-0.47079998,0.1926375,9.345,3.9769502,-0.34800002,-34.3125,17.212502,1.25625
42.251461988304094,2.81435,-0.411125,-0.93541247,9.345,3.9769502,-0.34800002,-34.0125,19.987501,-4.55625
42.32456140350877,2.887775,-0.28765,-1.888975,9.8880005,1.8580501,-0.61605,-34.0125,19.987501,-4.55625
42.39766081871345,2.181025,0.1156375,-0.5608625,9.8880005,1.8580501,-0.61605,-33.600002,19.85625,-9.84375
42.47076023391813,2.181025,0.1156375,-0.5608625,10.39095,1.0699501,-0.82695,-33.600002,19.85625,-9.84375
42.5438596491228,4.015825,1.420375,-0.9939875,8.80305,-1.8510001,-1.5190501,-33.600002,19.85625,-9.84375
42.61695906432748,4.6894374,0.3785375,0.6576625,17.101952,4.9879503,1.47405,-33.54375,16.6875,-13.9125
42.69005847953216,3.622025,-1.082675,0.4618625,17.101952,4.9879503,1.47405,-33.54375,16.6875,-13.9125
42.76315789473684,3.622025,-1.082675,0.4618625,13.906951,0.897,-0.58500004,-32.943752,10.25625,-15.187501
42.836257309941516,1.870275,0.82335,0.17985,8.712001,0.19995001,-0.22395001,-32.943752,10.25625,-15.187501
42.909356725146196,1.24355,0.7519875,-0.0947375,10.06995,-1.8510001,0.52500004,-32.943752,10.25625,-15.187501
42.98245614035088,1.24355,0.7519875,-0.0947375,10.06995,-1.8510001,0.52500004,-33.1875,3.7125,-12.6
43.05555555555555,-0.53473747,-0.3419625,0.54065,10.06995,-1.8510001,0.52500004,-33.1875,3.7125,-12.6
43.12865497076023,0.1324125,-1.04225,-0.0787875,9.07905,-4.3320003,-0.882,-33.9,-1.44375,-7.9875
43.20175438596491,0.3443,-0.674025,-0.70454997,9.07905,-4.3320003,-0.882,-33.9,-1.44375,-7.9875
43.27485380116959,1.8778375,0.2039125,-1.4047,8.7630005,-4.905,-0.31695002,-33.9,-1.44375,-7.9875
43.347953216374265,1.0668625,0.1549625,-0.70454997,9.867001,-5.4360003,0.38595003,-33.9,-1.44375,-7.9875
43.421052631578945,1.0668625,0.1549625,-0.70454997,12.703051,-5.1709504,-2.08005,-34.3875,-5.1000004,-3.6000001
43.494152046783626,1.266925,0.8361375,0.27885,12.703051,-5.1709504,-2.08005,-34.3875,-5.1000004,-3.6000001
43.5672514619883,2.313025,1.5607625,0.7396125,10.444051,1.44105,-1.42305,-34.143753,-8.45625,1.8000001
43.64035087719298,2.1704376,0.44233748,0.3246375,9.0,0.79905003,-1.9240501,-34.143753,-8.45625,1.8000001
43.71345029239766,2.132075,0.56787497,0.0543125,6.2119503,0.19995001,1.9429501,-34.3875,-9.95625,8.212501
43.78654970760234,1.37445,0.014575,0.1670625,8.154,-0.17205001,4.0030503,-34.3875,-9.95625,8.212501
43.859649122807014,2.6642,-0.3760625,0.566225,8.154,-0.17205001,4.0030503,-34.3875,-9.95625,8.212501
43.932748538011694,2.6642,-0.3760625,0.566225,9.012,0.22395001,2.4460502,-34.55625,-8.45625,13.8
44.005847953216374,3.5784376,-0.9315625,0.81949997,9.012,0.22395001,2.4460502,-34.55625,-8.45625,13.8
44.07894736842105,3.3496375,0.4200625,0.04785,7.0650005,3.9169502,3.63105,-34.5,-4.4437504,17.212502
44.15204678362573,2.412025,1.1947374,0.3491125,7.0650005,3.9169502,3.63105,-34.5,-4.4437504,17.212502
44.22514619883041,2.412025,1.1947374,0.3491125,7.7470503,1.3399501,2.3050501,-34.5,-4.4437504,17.212502
44.29824561403508,2.25665,0.8606125,0.7513,7.7110505,-0.17205001,2.80995,-34.5,-4.4437504,17.212502
44.37134502923976,2.38865,-0.738925,1.3440624,10.132951,0.74595004,0.45105,-34.3875,2.8125,18.1875
44.44444444444444,2.38865,-0.738925,1.3440624,10.132951,0.74595004,0.45105,-33.84375,9.0,14.587501
44.51754385964912,0.4305125,-0.135575,-0.4789125,10.5060005,-0.23895001,3.7180502,-33.84375,9.0,14.587501
44.5906432748538,0.1249875,0.093225,-0.74593747,9.88395,-1.7479501,3.90405,-33.84375,9.0,14.587501
44.66374269005848,0.055825,0.275275,-0.08305,9.88395,-1.7479501,3.90405,-33.84375,9.0,14.587501
44.73684210526316,0.055825,0.275275,-0.08305,9.74505,-1.8919501,3.6150002,-33.112503,13.087501,8.94375
44.80994152046783,1.3233,-0.0121,-0.6810375,9.567,-1.008,0.48195,-33.112503,13.087501,8.94375
44.88304093567251,1.07745,-1.33705,-0.8386125,9.8880005,1.95105,1.6530001,-33.112503,13.087501,8.94375
44.95614035087719,1.07745,-1.33705,-0.8386125,9.8880005,1.95105,1.6530001,-32.2125,16.087502,3.1875002
45.02923976608187,1.6157625,0.1167375,0.10835,10.14,1.2040501,1.4640001,-32.2125,16.087502,3.1875002
45.102339181286546,1.3806375,0.3487,1.05545,10.585051,1.9270501,-1.3080001,-32.2125,16.087502,3.1875002
45.175438596491226,1.3806375,0.3487,1.05545,10.55895,2.7769501,-0.60195005,-32.5125,18.4125,-3.35625
45.248538011695906,1.9190875,0.2061125,0.5776375,10.55895,2.7769501,-0.60195005,-32.5125,18.4125,-3.35625
45.32163742690058,1.8222874,-0.2844875,-0.503525,10.924951,2.298,-1.1340001,-32.8875,19.143751,-9.84375
45.39473684210526,2.1680999,0.13475,-0.358875,10.924951,2.298,-1.1340001,-32.8875,19.143751,-9.84375
45.46783625730994,1.9861875,0.765875,-0.66316247,10.044001,2.8969502,-1.5139501,-32.8875,19.143751,-9.84375
45.540935672514614,2.3054626,1.1638,0.722425,7.7400002,-0.57195,0.55395,-32.8875,19.143751,-9.84375
45.614035087719294,3.2047124,0.60513747,0.1903,7.9920006,1.3120501,-0.74295,-32.34375,17.456251,-15.543751
45.687134502923975,3.9804876,-1.0454125,-1.094225,8.7630005,0.08805001,0.3,-32.34375,17.456251,-15.543751
45.760233918128655,3.7676375,0.1571625,-0.6557375,8.7630005,0.08805001,0.3,-32.34375,17.456251,-15.543751
45.83333333333333,3.8336375,0.8190875,-0.1067,10.992001,1.0000501,0.21105,-31.612501,13.14375,-20.15625
45.90643274853801,3.6037376,0.5966125,0.541475,10.992001,1.0000501,0.21105,-31.612501,13.14375,-20.15625
45.97953216374269,3.6037376,0.5966125,0.541475,8.158951,-0.28995,-1.00905,-31.612501,13.14375,-20.15625
46.05263157894736,2.127675,0.2508,0.263725,8.158951,-0.28995,-1.00905,-31.2,6.1125,-22.3125
46.12573099415204,0.3047,0.8925125,-0.22687499,9.153001,1.6470001,-2.022,-31.2,6.1125,-22.3125
46.198830409356724,0.6006,-0.0067375,-0.51315,9.153001,1.6470001,-2.022,-30.900002,-1.0875001,-19.5
46.271929824561404,0.6006,-0.0067375,-0.51315,9.096001,0.99300003,-1.7989501,-30.900002,-1.0875001,-19.5
46.34502923976608,1.0954624,-0.511225,0.7489625,10.992001,-0.915,-2.0370002,-30.900002,-1.0875001,-19.5
46.41812865497076,1.2423126,1.0000376,0.393525,8.611951,-3.7459502,-2.3410501,-31.2,-6.0,-13.687501
46.49122807017544,0.869825,0.4785,-0.179025,8.611951,-3.7459502,-2.3410501,-31.2,-6.0,-13.687501
46.56432748538011,0.869825,0.4785,-0.179025,10.03005,-1.9590001,-2.295,-31.25625,-10.200001,-7.74375
46.63742690058479,1.4168,0.33385,-0.146025,11.646001,-2.3490002,-2.53695,-31.25625,-10.200001,-7.74375
46.71052631578947,0.4153875,0.0422125,-0.50888747,9.72105,-0.90705,1.8229501,-31.25625,-10.200001,-7.74375
46.783625730994146,0.3366,-0.593175,-0.1013375,9.58905,-0.86205006,1.9069501,-31.143751,-12.356251,-1.3125
46.856725146198826,1.6902875,0.23485,0.934175,9.58905,-0.86205006,1.9069501,-31.143751,-12.356251,-1.3125
46.92982456140351,1.6902875,0.23485,0.934175,9.58905,-0.86205006,1.9069501,-31.087502,-13.087501,4.55625
47.00292397660819,1.5508626,0.257125,0.85965,9.214951,-0.072,1.07805,-31.087502,-13.087501,4.55625
47.07602339181286,3.9964375,-0.823075,0.2935625,6.9040504,0.74205005,1.026,-31.087502,-13.087501,4.55625
47.14912280701754,3.9964375,-0.823075,0.2935625,6.9040504,0.74205005,1.026,-31.312502,-12.3,10.556251
47.22222222222222,2.9088125,-0.9059875,0.1029875,7.4929504,1.149,0.85095006,-31.312502,-12.3,10.556251
47.295321637426895,3.1205626,0.2847625,-0.23333749,10.806001,-1.31505,3.1879501,-31.312502,-12.3,10.556251
47.368421052631575,3.1205626,0.2847625,-0.23333749,10.806001,-1.31505,3.1879501,-31.44375,-8.2875,16.44375
47.441520467836256,2.554475,-0.7634,0.5511,10.861051,-1.9519501,1.1209501,-31.44375,-8.2875,16.44375
47.514619883040936,1.10605,-0.1078,-0.18645,10.485001,-1.48695,1.251,-31.9125,-1.3125,19.556252
47.58771929824561,0.7654625,0.2721125,0.0369875,8.719951,-1.45095,1.38495,-31.9125,-1.3125,19.556252
47.66081871345029,0.605825,0.21779999,-0.0108625,8.719951,-1.45095,1.38495,-31.9125,-1.3125,19.556252
47.73391812865497,1.3497,-0.4675,0.229625,9.15795,-1.5970501,2.4390001,-31.9125,6.5437503,18.056252
47.807017543859644,1.3699125,-0.57928747,-0.3141875,10.68795,-1.7890501,2.661,-31.9125,6.5437503,18.056252
47.880116959064324,1.7765,0.59345,-0.586575,8.748,-1.1400001,1.4089501,-31.800001,12.6,13.500001
47.953216374269005,1.7765,0.59345,-0.586575,10.111051,-0.07395,0.95100003,-31.800001,12.6,13.500001
48.026315789473685,2.029775,0.6765,-0.9761125,10.111051,-0.07395,0.95100003,-31.3875,17.8875,8.1
48.09941520467836,3.402575,-0.1387375,-0.0694375,10.1640005,-0.42405003,1.2529501,-31.3875,17.8875,8.1
48.17251461988304,3.0823374,-0.020625,0.5159,9.175051,0.08505,0.10395,-31.143751,21.4125,2.34375
48.24561403508772,3.0823374,-0.020625,0.5159,9.175051,0.08505,0.10395,-31.143751,21.4125,2.34375
48.31871345029239,3.4090376,-0.3718,0.22,9.48795,-0.13605,1.11405,-31.143751,21.4125,2.34375
48.39181286549707,2.67575,-1.1273625,0.0796125,11.301001,4.43205,1.24395,-31.143751,21.4125,2.34375
48.46491228070175,1.8712375,0.39765,-1.0421125,11.29905,2.3389502,1.014,-30.4125,22.6875,-4.2562504
48.53801169590643,1.8712375,0.39765,-1.0421125,11.29905,2.3389502,1.014,-30.4125,22.6875,-4.2562504
48.61111111111111,1.46465,0.848925,0.5350125,9.691951,-0.06705,0.726,-30.35625,21.0,-10.387501
48.68421052631579,3.483425,0.8424625,-0.6898375,10.55895,-1.1880001,0.216,-30.35625,21.0,-10.387501
48.75730994152047,3.2386749,0.0826375,0.3903625,10.55895,-1.1880001,0.216,-30.35625,21.0,-10.387501
48.83040935672514,3.2386749,0.0826375,0.3903625,7.45695,-1.5660001,-1.42095,-30.843752,16.5,-14.75625
48.90350877192982,2.1021,0.5253875,-0.1247125,7.45695,-1.5660001,-1.42095,-30.843752,16.5,-14.75625
48.9766081871345,2.1021,0.5253875,-0.1247125,12.10095,-0.50295,1.12395,-30.843752,10.012501,-16.85625
49.049707602339176,1.5838625,0.583825,0.3647875,12.10095,-0.50295,1.12395,-30.843752,10.012501,-16.85625
49.122807017543856,1.2018875,-0.002475,0.2913625,10.651951,-1.11105,0.40305,-30.843752,10.012501,-16.85625
49.19590643274854,0.77288747,-0.363275,0.07535,10.651951,-1.11105,0.40305,-30.843752,10.012501,-16.85625
49.26900584795322,1.8808625,-0.362175,0.0455125,10.281,-0.87405,0.69495004,-31.500002,3.1875002,-15.4125
49.34210526315789,1.734975,-1.155,-0.7387875,10.281,-0.87405,0.69495004,-31.500002,3.1875002,-15.4125
49.41520467836257,2.293775,0.9713,0.3488375,10.281,-0.87405,0.69495004,-32.4,-3.05625,-12.056251
49.48830409356725,2.014925,1.5032874,1.211925,10.147051,-1.8270001,1.6480501,-32.4,-3.05625,-12.056251
49.561403508771924,2.014925,1.5032874,1.211925,10.147051,-1.8270001,1.6480501,-32.4,-3.05625,-12.056251
49.634502923976605,1.293325,-0.2281125,-0.3034625,11.3230505,-2.02395,-0.84405005,-32.4,-3.05625,-12.056251
49.707602339181285,1.358225,-0.151525,0.15619999,11.3230505,-2.02395,-0.84405005,-33.24375,-8.400001,-7.0875
49.78070175438596,1.4008499,-0.0174625,1.0044374,9.012,-0.73005,0.393,-33.24375,-8.400001,-7.0875
49.85380116959064,1.097525,-0.869825,0.0380875,9.012,-0.73005,0.393,-33.65625,-12.0,-1.3875
49.92690058479532,1.097525,-0.869825,0.0380875,8.997001,-1.212,1.8780001,-33.65625,-12.0,-1.3875
50.0,3.532375,-0.4995375,0.2338875,7.7640004,0.72705,2.3410501,-33.65625,-12.0,-1.3875
50.07309941520467,3.55795,0.1167375,0.0774125,7.7640004,0.72705,2.3410501,-34.3125,-12.056251,4.8
50.146198830409354,4.50945,0.9244125,-0.0704,17.23905,-8.703,-1.335,-34.3125,-12.056251,4.8
50.219298245614034,4.50945,0.9244125,-0.0704,17.23905,-8.703,-1.335,-34.443752,-8.887501,10.44375
50.29239766081871,3.3408375,0.456225,0.2222,15.409051,-4.656,0.75495005,-34.443752,-8.887501,10.44375
50.36549707602339,2.70875,0.5465625,0.1912625,12.307051,2.433,2.769,-34.443752,-8.887501,10.44375
50.43859649122807,2.750275,0.0528,0.10615,9.229951,-1.7050501,3.1240501,-33.84375,-3.54375,14.1
50.51169590643275,2.750275,0.0528,0.10615,9.229951,-1.7050501,3.1240501,-33.84375,-3.54375,14.1
50.58479532163742,2.4927375,-0.8965,1.1661375,9.229951,-1.7050501,3.1240501,-33.84375,-3.54375,14.1
50.6578947368421,1.4933875,-0.8399875,0.4978875,9.117001,1.33095,2.9560502,-33.7125,3.0,13.44375
50.73099415204678,0.2717,-0.0312125,-0.2673,8.77005,1.6999501,4.1460004,-33.7125,3.0,13.44375
50.804093567251456,0.2717,-0.0312125,-0.2673,8.77005,1.6999501,4.1460004,-33.05625,8.2875,8.94375
50.87719298245614,0.1109625,-0.626175,-1.4326125,8.643001,2.9260502,4.55595,-33.05625,8.2875,8.94375
50.95029239766082,3.0078125,-0.5665,0.21573749,9.75195,2.56695,2.2020001,-33.05625,8.2875,8.94375
51.0233918128655,2.765125,-1.5818,-0.4940375,9.75195,2.56695,2.2020001,-32.4,11.64375,3.4875002
51.09649122807017,2.2691624,-0.32175,0.1667875,10.36305,-2.2339501,-2.9490001,-32.4,11.64375,3.4875002
51.16959064327485,2.2691624,-0.32175,0.1667875,9.0070505,-1.3120501,-5.4420004,-32.04375,14.45625,-2.8875
51.24269005847953,2.3852124,0.2305875,-0.41525,13.906951,2.6170502,3.282,-32.04375,14.45625,-2.8875
51.315789473684205,1.8425,0.2443375,-0.8270625,13.906951,2.6170502,3.282,-32.04375,14.45625,-2.8875
51.388888888888886,2.1382625,-0.100375,-0.38541248,8.973001,0.65805006,-1.9980001,-32.2125,14.212501,-8.8125
51.461988304093566,3.6196876,1.0362,-1.5890875,7.0410004,1.06305,-3.22005,-32.2125,14.212501,-8.8125
51.53508771929824,4.009225,1.6896,-0.1417625,6.6379504,1.23,-2.94705,-32.5125,11.15625,-12.656251
51.60818713450292,3.7654374,1.4224375,-0.1716,9.541051,-0.01395,-3.0949502,-32.5125,11.15625,-12.656251
51.6812865497076,3.7654374,1.4224375,-0.1716,9.541051,-0.01395,-3.0949502,-32.5125,11.15625,-12.656251
51.75438596491228,2.77365,0.7126625,0.064625,10.450951,-0.69705003,0.3,-32.5125,6.3562503,-15.6
51.827485380116954,1.1444125,0.1304875,0.214775,10.450951,-0.69705003,0.3,-32.5125,6.3562503,-15.6
51.900584795321635,-0.031625,0.07205,-0.0034375,11.29695,-1.41795,-0.18495001,-32.7,0.0,-16.800001
51.973684210526315,-0.031625,0.07205,-0.0034375,11.29695,-1.41795,-0.18495001,-32.7,0.0,-16.800001
52.04678362573099,1.0049875,0.935,0.86817497,10.588051,-1.40295,-0.11805001,-32.7,0.0,-16.800001
52.11988304093567,0.6601375,-0.0972125,2.23355,10.40295,-1.557,-0.90795004,-32.7,0.0,-16.800001
52.19298245614035,1.260325,1.05325,0.574475,9.690001,-3.9780002,-0.97800004,-33.05625,-6.0,-13.743751
52.26608187134503,0.820875,-0.1302125,-0.4334,9.690001,-3.9780002,-0.97800004,-33.05625,-6.0,-13.743751
52.3391812865497,1.6988125,-0.242,-0.12155,10.34595,-2.0400002,0.41700003,-34.0875,-10.387501,-8.2875
52.41228070175438,1.590325,-0.443025,-0.18755,10.899,-3.8580003,0.14895001,-34.0875,-10.387501,-8.2875
52.485380116959064,1.590325,-0.443025,-0.18755,10.899,-3.8580003,0.14895001,-34.0875,-10.387501,-8.2875
52.55847953216374,1.6680125,-0.6271375,0.492525,9.10305,-4.5600004,4.2010503,-34.0875,-10.387501,-8.2875
52.63157894736842,2.2554126,-0.5687,0.5286875,9.10305,-4.5600004,4.2010503,-35.2125,-11.700001,-2.9437501
52.7046783625731,2.2554126,-0.5687,0.5286875,7.8690004,-2.079,2.8219502,-35.2125,-11.700001,-2.9437501
52.77777777777777,3.221625,0.0166375,0.9384375,7.8690004,-2.079,2.8219502,-36.0,-12.712501,3.0
52.85087719298245,1.2486374,0.0496375,0.4786375,8.260051,-1.2040501,2.9580002,-36.0,-12.712501,3.0
52.92397660818713,0.9475125,-0.070675,0.6202625,17.470951,-4.09005,-1.3399501,-36.0,-12.712501,3.0
52.99707602339181,3.1068125,0.2613875,1.1160874,8.859,2.0299501,2.7120001,-36.112503,-11.34375,8.700001
53.070175438596486,3.9719625,-0.3898125,0.5020125,8.859,2.0299501,2.7120001,-36.112503,-11.34375,8.700001
53.14327485380117,4.173125,-0.8305,0.3914625,9.19095,-0.60795003,1.28205,-35.4,-7.0125003,12.900001
53.21637426900585,3.7921126,-1.2434125,0.33605,9.19095,-0.60795003,1.28205,-35.4,-7.0125003,12.900001
53.28947368421052,2.847075,-1.133825,0.541475,10.49205,-2.6440501,2.74305,-35.4,-7.0125003,12.900001
53.3625730994152,1.6594875,-0.1205875,-0.605825,7.9240503,-0.9480001,6.6900005,-35.4,-7.0125003,12.900001
53.43567251461988,1.8701375,-0.4037,-0.292875,7.8529506,-1.07805,6.29505,-34.6875,-0.54375005,15.056251
53.50877192982456,2.0042,-1.1870375,0.2105125,7.8529506,-1.07805,6.29505,-34.6875,-0.54375005,15.056251
53.581871345029235,1.2188,-0.085525,-0.440825,9.285001,-2.148,2.52495,-34.0125,6.9,13.14375
53.654970760233915,1.2188,-0.085525,-0.440825,9.285001,-2.148,2.52495,-34.0125,6.9,13.14375
53.728070175438596,0.3664375,-0.09405,-0.9750125,10.719001,1.89795,1.011,-34.0125,6.9,13.14375
53.80116959064327,0.7420875,-0.084425,0.3796375,10.719001,1.89795,1.011,-33.300003,12.356251,8.700001
53.87426900584795,2.4990625,0.20185,0.07645,8.724,1.077,0.432,-33.300003,12.356251,8.700001
53.94736842105263,2.64385,1.1787875,-0.0831875,8.724,1.077,0.432,-33.0,16.143751,3.8437502
54.0204678362573,3.2386749,0.355025,-0.05775,8.425051,0.56205004,0.657,-33.0,16.143751,3.8437502
54.093567251461984,2.913075,0.2880625,0.1689875,11.23005,2.01795,3.3460503,-33.0,16.143751,3.8437502
54.166666666666664,0.510125,-0.2685375,0.10835,10.873051,2.49705,0.906,-32.287502,17.212502,-1.2
54.239766081871345,1.0113125,-0.0152625,0.52442497,8.63805,-1.9849501,-1.32,-31.85625,18.056252,-6.4125004
54.31286549707602,0.755975,-0.1302125,0.1753125,8.37705,-1.7149501,-0.76500005,-32.643753,13.9125,-16.9125
54.3859649122807,1.392325,-0.265375,0.17215,10.159051,-1.008,0.12795001,-32.643753,13.9125,-16.9125
54.45906432748538,2.6140125,-0.1610125,0.6659125,9.09795,-0.40905002,-1.146,-33.956253,0.35625002,-19.44375
54.53216374269005,2.7630625,-0.7528125,1.21825,9.687,-0.522,2.55795,-34.3125,-5.4,-15.000001
54.60526315789473,1.6253875,-0.985875,0.4541625,14.140051,-3.9750001,-0.47505003,-34.800003,-12.0,-4.6875
54.67836257309941,1.6253875,-0.985875,0.4541625,10.22805,1.7119501,3.8370001,-35.287502,-12.900001,0.54375005
54.751461988304094,1.8191249,-0.6708625,0.5520625,10.22805,1.7119501,3.8370001,-35.100002,-12.356251,5.8125
54.82456140350877,3.208975,-0.5814875,0.0466125,8.644951,-0.93105006,2.70495,-35.100002,-12.356251,5.8125
54.89766081871345,2.6566374,-0.49307498,-0.588775,8.644951,-0.93105006,2.70495,-34.800003,-9.4875,10.387501
54.97076023391813,2.5480125,-0.918775,-0.0939125,9.370951,-1.542,2.33295,-34.800003,-9.4875,10.387501
55.0438596491228,1.7785625,-1.46905,0.5190625,10.19295,-2.53605,1.4449501,-34.143753,-3.9,14.587501
55.11695906432748,1.2827375,-0.3069,0.113575,10.19295,-2.53605,1.4449501,-34.143753,-3.9,14.587501
55.19005847953216,1.3965875,0.5732375,-0.1034,10.894051,-1.164,2.5849502,-34.143753,-3.9,14.587501
55.26315789473684,1.9361374,0.4785,0.04015,10.894051,-1.164,2.5849502,-33.787502,3.35625,15.356251
55.336257309941516,1.9361374,0.4785,0.04015,8.643001,-2.87595,-2.4750001,-33.787502,3.35625,15.356251
55.409356725146196,2.3331,-0.5803875,-0.048125,8.643001,-2.87595,-2.4750001,-33.787502,3.35625,15.356251
55.48245614035088,1.9722999,-0.6026625,0.228525,9.726001,-0.47895002,0.01995,-33.35625,10.087501,13.200001
55.55555555555555,0.7921375,0.4731375,0.15413749,9.726001,-0.47895002,0.01995,-33.35625,10.087501,13.200001
55.62865497076023,2.1680999,-0.688875,-1.56035,9.637051,-0.32505003,0.35700002,-33.35625,10.087501,13.200001
55.70175438596491,2.5086875,-0.26427498,-0.0939125,9.649051,0.018,1.5289501,-32.5875,16.2,9.95625
55.774853801169584,2.3511126,-0.73149997,0.6032125,8.29605,-0.35895002,-0.55200005,-32.5875,16.2,9.95625
55.847953216374265,2.332,-0.345125,0.8138625,8.29605,-0.35895002,-0.55200005,-31.687502,20.400002,4.9125004
55.921052631578945,2.332,-0.345125,0.8138625,8.44695,-0.63705003,-0.88905007,-31.687502,20.400002,4.9125004
55.994152046783626,2.4523125,-0.034375,0.13915,8.455951,-2.6250002,-0.19005,-31.687502,20.400002,4.9125004
56.0672514619883,1.79465,-0.0781,-0.85153747,8.455951,-2.6250002,-0.19005,-29.75625,22.987501,-6.7125
56.14035087719298,1.212475,0.2156,-0.6664625,10.85805,-0.38505003,-0.55605,-29.75625,22.987501,-6.7125
56.21345029239766,1.212475,0.2156,-0.6664625,10.85805,-0.38505003,-0.55605,-29.75625,20.643751,-12.1125
56.28654970760233,3.614325,0.192225,-0.8856375,9.09795,-0.68700004,-0.291,-29.75625,20.643751,-12.1125
56.359649122807014,3.65585,0.1145375,-0.1662375,9.09795,-0.68700004,-0.291,-29.75625,20.643751,-12.1125
56.432748538011694,3.65585,0.1145375,-0.1662375,9.09795,-0.68700004,-0.291,-30.54375,15.7875,-16.556252
56.505847953216374,3.0130374,-0.3163875,-0.0290125,10.6380005,-0.86895007,-1.5670501,-30.54375,15.7875,-16.556252
56.57894736842105,2.2224126,-0.5484875,0.229625,10.6380005,-0.86895007,-1.5670501,-30.54375,15.7875,-16.556252
56.65204678362573,2.2224126,-0.5484875,0.229625,10.6380005,-0.86895007,-1.5670501,-31.143751,9.243751,-18.65625
56.72514619883041,2.7033875,0.6392375,-1.0208,10.750951,-2.4430501,-2.12295,-31.143751,9.243751,-18.65625
56.79824561403508,2.3957999,1.5225375,-0.7046875,10.03005,1.005,1.6560001,-31.143751,9.243751,-18.65625
56.87134502923976,1.39975,-0.0323125,0.0955625,8.578051,-5.28105,-0.30495003,-31.687502,1.8000001,-17.456251
56.94444444444444,0.769725,0.242275,-0.1194875,9.38805,0.67905,0.84405005,-31.687502,1.8000001,-17.456251
57.017543859649116,2.1373,1.2904375,1.6918,9.38805,0.67905,0.84405005,-31.687502,1.8000001,-17.456251
57.0906432748538,2.1373,1.2904375,1.6918,10.83195,0.33,0.80100006,-31.9125,-4.4437504,-13.312501
57.16374269005848,3.06845,0.862675,0.6989125,8.95005,-1.2240001,1.0210501,-31.9125,-4.4437504,-13.312501
57.23684210526316,2.6247375,0.1199,0.722425,8.95005,-1.2240001,1.0210501,-32.2125,-8.94375,-7.6875005
57.30994152046783,1.1284626,-0.3366,-0.078925,11.698951,-2.23005,2.5180502,-32.2125,-8.94375,-7.6875005
57.38304093567251,2.1063626,0.568975,1.3226125,10.911,-0.33,3.6430502,-32.7,-12.4125,-1.0875001
57.45614035087719,3.9155874,-0.233475,1.02135,10.911,-0.33,3.6430502,-32.7,-12.4125,-1.0875001
57.529239766081865,3.9155874,-0.233475,1.02135,10.911,-0.33,3.6430502,-32.7,-12.4125,-1.0875001
57.602339181286546,3.42925,-1.3083125,0.051975,8.146951,-0.582,3.3750002,-33.24375,-11.75625,5.2125
57.675438596491226,4.1039624,-0.4261125,-0.3130875,8.146951,-0.582,3.3750002,-33.24375,-11.75625,5.2125
57.748538011695906,3.5154624,-0.2919125,0.2563,10.224001,0.50505,2.403,-32.756252,-8.2875,10.087501
57.82163742690058,3.273875,-0.35365,0.770275,10.224001,0.50505,2.403,-32.756252,-8.2875,10.087501
57.89473684210526,3.012075,-1.1369874,1.079925,9.081,-0.246,2.19405,-32.756252,-8.2875,10.087501
57.96783625730994,3.012075,-1.1369874,1.079925,9.081,-0.246,2.19405,-31.800001,-2.5875,12.356251
58.040935672514614,2.423575,-0.71335,0.345675,9.081,-0.246,2.19405,-31.800001,-2.5875,12.356251
58.114035087719294,1.2837,0.7062,-0.556875,10.417951,-1.233,0.43905002,-31.800001,-2.5875,12.356251
58.187134502923975,-0.325325,0.489225,-0.7931,10.972951,4.353,1.24395,-31.143751,3.3000002,11.400001
58.260233918128655,0.738925,-0.329175,-0.588775,10.972951,4.353,1.24395,-31.143751,3.3000002,11.400001
58.33333333333333,2.0915124,-0.3696,-0.0757625,10.045951,2.9950502,-0.57600003,-31.143751,3.3000002,11.400001
58.40643274853801,2.8513374,-0.61448747,-0.25025,9.835951,1.28295,-0.55605,-30.7875,8.94375,7.2000003
58.47953216374269,2.9557,-0.84645,-0.1725625,9.835951,1.28295,-0.55605,-30.7875,8.94375,7.2000003
58.55263157894736,2.5267,-0.6549125,-0.0290125,8.392051,1.2019501,-0.59205,-30.7875,8.94375,7.2000003
58.62573099415204,-0.30827498,0.9340375,0.49885,8.392051,1.2019501,-0.59205,-30.712502,12.712501,1.1437501
58.698830409356724,-0.30827498,0.9340375,0.49885,8.392051,1.2019501,-0.59205,-30.712502,12.712501,1.1437501
58.7719298245614,0.4675,-1.342275,0.100925,7.5130506,2.8180501,-3.186,-30.7875,14.75625,-5.5125003
58.84502923976608,0.837925,-0.755975,-0.2418625,7.5130506,2.8180501,-3.186,-30.7875,14.75625,-5.5125003
58.91812865497076,0.7995625,1.1053625,0.0125125,10.135051,-0.03795,-2.14395,-31.143751,14.156251,-11.2875
58.99122807017544,1.128325,0.928675,-0.22687499,10.135051,-0.03795,-2.14395,-31.143751,14.156251,-11.2875
59.06432748538011,1.128325,0.928675,-0.22687499,10.791,-0.41205,-1.7539501,-31.143751,14.156251,-11.2875
59.13742690058479,1.6402375,-0.06215,-0.6419875,10.564051,6.09705,-0.82695,-31.2,11.043751,-16.0125
59.21052631578947,1.6402375,-0.06215,-0.6419875,13.252951,4.6650004,-1.7680501,-31.2,11.043751,-16.0125
59.283625730994146,4.809475,1.4383875,0.2850375,7.0720506,0.22005,-0.669,-31.2,11.043751,-16.0125
59.356725146198826,4.809475,1.4383875,0.2850375,7.0720506,0.22005,-0.669,-31.556252,6.3,-19.85625
59.42982456140351,5.29375,1.1958375,0.5605875,10.684051,-1.26705,1.26495,-31.556252,6.3,-19.85625
59.50292397660819,4.2081876,0.061325,0.1593625,10.684051,-1.26705,1.26495,-31.556252,6.3,-19.85625
59.57602339181286,3.025825,-0.6293375,0.4041125,8.073,-3.6160502,-1.143,-32.15625,-0.90000004,-20.8875
59.64912280701754,2.3012,-0.30153748,0.6138,8.073,-3.6160502,-1.143,-32.15625,-0.90000004,-20.8875
59.72222222222222,2.3012,-0.30153748,0.6138,8.844001,-4.1410503,-1.797,-32.15625,-0.90000004,-20.8875
59.795321637426895,1.720125,-0.09295,0.0232375,9.805051,-4.75395,-1.9099501,-32.4,-7.2000003,-17.1
59.868421052631575,0.609125,0.5168625,-0.28655,9.805051,-4.75395,-1.9099501,-32.4,-7.2000003,-17.1
59.941520467836256,0.609125,0.5168625,-0.28655,11.58405,2.835,2.331,-32.4,-7.2000003,-17.1
60.01461988304093,0.7016625,0.7052375,-0.474925,9.559951,-1.983,2.77605,-32.643753,-10.556251,-10.6875
60.08771929824561,0.5718625,0.43065,-0.7154125,9.559951,-1.983,2.77605,-32.643753,-10.556251,-10.6875
60.16081871345029,0.5718625,0.43065,-0.7154125,10.446,0.43005002,3.52605,-32.643753,-10.556251,-10.6875
60.23391812865497,2.2798874,0.7126625,0.1508375,9.45495,1.05795,3.8830502,-33.0,-12.187501,-3.9
60.307017543859644,2.8034875,0.39545,0.458425,9.45495,1.05795,3.8830502,-33.0,-12.187501,-3.9
60.380116959064324,2.8034875,0.39545,0.458425,8.431951,0.79905003,3.186,-33.0,-12.187501,-3.9
60.453216374269005,3.111075,0.14973749,0.785125,7.7299504,-0.165,1.81605,-33.1875,-12.900001,3.05625
60.52631578947368,1.43385,0.9340375,0.9884875,10.14,-0.58395004,3.8730001,-33.1875,-12.900001,3.05625
60.59941520467836,1.5818,1.0223125,0.71389997,10.14,-0.58395004,3.8730001,-33.1875,-12.900001,3.05625
60.67251461988304,1.5818,1.0223125,0.71389997,10.14,-0.58395004,3.8730001,-33.35625,-10.25625,8.587501
60.74561403508772,2.9481375,-0.23127499,0.60101247,8.842051,-3.04905,3.2719502,-33.35625,-10.25625,8.587501
60.81871345029239,4.8637877,-0.933625,0.8448,8.842051,-3.04905,3.2719502,-33.35625,-10.25625,8.587501
60.89181286549707,3.3163624,-1.0049875,-0.1364,8.775001,1.455,2.32605,-33.35625,-10.25625,8.587501
60.96491228070175,3.88795,-0.165275,-0.045925,8.775001,1.455,2.32605,-32.943752,-5.5125003,12.4125
61.03801169590643,3.516425,0.4807,-0.5099875,10.37895,1.9849501,1.677,-32.943752,-5.5125003,12.4125
61.11111111111111,3.516425,0.4807,-0.5099875,10.37895,1.9849501,1.677,-32.7,0.1875,14.45625
61.18421052631579,2.322375,-0.3515875,0.6351125,10.684051,3.2350502,0.89895004,-32.7,0.1875,14.45625
61.25730994152046,0.9464125,0.1464375,0.786225,10.684051,3.2350502,0.89895004,-32.7,0.1875,14.45625
61.33040935672514,0.9464125,0.1464375,0.786225,10.321951,3.2680502,0.67395,-32.34375,6.6562505,13.500001
61.40350877192982,-0.3498,0.60513747,0.3169375,10.444051,-3.0370502,-0.147,-32.34375,6.6562505,13.500001
61.4766081871345,0.1727,0.0666875,0.296725,8.905951,4.05195,-0.59505004,-32.34375,6.6562505,13.500001
61.549707602339176,0.5643,-0.45155,0.2743125,8.905951,4.05195,-0.59505004,-32.2125,10.5,8.2875
61.622807017543856,0.5643,-0.45155,0.2743125,8.05095,4.41795,1.67505,-32.2125,10.5,8.2875
61.69590643274854,2.3012,-0.7943375,-0.2077625,9.16695,3.4699502,-1.4980501,-32.34375,11.75625,1.3875
61.76900584795321,1.7477624,-0.2770625,0.43614998,8.70495,0.94005007,-2.42505,-32.34375,11.75625,1.3875
61.84210526315789,1.72865,0.535975,0.8394375,8.70495,0.94005007,-2.42505,-32.34375,11.75625,1.3875
61.91520467836257,1.737175,0.4360125,0.385,9.052951,-1.8270001,0.05295,-32.34375,11.75625,1.3875
61.98830409356725,1.948925,0.022,-1.0261625,10.626,-0.036,-0.08895,-32.2125,12.1125,-5.5875
62.061403508771924,2.0064,-0.22385,-0.487575,10.626,-0.036,-0.08895,-32.2125,12.1125,-5.5875
62.134502923976605,2.8535376,0.0251625,-0.8611625,8.05605,0.97605,0.97305006,-32.643753,11.587501,-11.75625
62.207602339181285,2.8535376,0.0251625,-0.8611625,8.05605,0.97605,0.97305006,-32.643753,11.587501,-11.75625
62.28070175438596,3.7175875,0.8328375,0.149875,8.05605,0.97605,0.97305006,-32.643753,11.587501,-11.75625
62.35380116959064,3.7835875,0.7935125,0.4148375,10.09395,-0.96495,0.28800002,-32.5875,9.4125,-17.587502
62.42690058479532,3.502675,0.4923875,0.0221375,10.09395,-0.96495,0.28800002,-32.8875,3.8437502,-21.243752
62.5,3.013175,-0.16005,0.3180375,11.14605,-1.5949501,-0.60405004,-32.8875,3.8437502,-21.243752
62.57309941520467,2.4437876,-0.512325,0.2349875,11.14605,-1.5949501,-0.60405004,-32.8875,3.8437502,-21.243752
62.646198830409354,1.5178624,-0.2536875,0.951225,8.875051,-4.0020003,-1.194,-32.7,-3.24375,-21.1875
62.719298245614034,1.1251625,-0.2707375,0.7478625,8.875051,-4.0020003,-1.194,-32.7,-3.24375,-21.1875
62.79239766081871,0.67925,-0.003575,0.9692375,8.847,-4.76595,-0.85800004,-32.7,-3.24375,-21.1875
62.86549707602339,0.232375,0.4785,-0.6994625,8.847,-4.76595,-0.85800004,-33.0,-9.1125,-17.04375
62.93859649122807,0.232375,0.4785,-0.6994625,9.474,-1.0849501,0.23505001,-33.0,-9.1125,-17.04375
63.01169590643274,0.0972125,-0.35475,0.3818375,9.474,-1.0849501,0.23505001,-33.0,-9.1125,-17.04375
63.08479532163742,0.2993375,-0.5707625,0.4499,10.25205,-2.043,0.06495,-33.600002,-10.9875,-10.14375
63.1578947368421,0.149325,0.27307498,-0.759,10.25205,-2.043,0.06495,-33.600002,-10.9875,-10.14375
63.23099415204678,0.230175,-0.2281125,-1.9732625,8.776951,-0.03105,-0.54705,-33.600002,-10.9875,-10.14375
63.304093567251456,0.45045,-0.3334375,-1.109075,8.776951,-0.03105,-0.54705,-33.54375,-11.34375,-3.05625
63.37719298245614,0.45045,-0.3334375,-1.109075,8.014951,0.26295,-0.85605,-33.54375,-11.34375,-3.05625
63.45029239766082,1.5178624,1.189375,0.8820625,8.026951,-0.02595,0.726,-33.54375,-11.34375,-3.05625
63.52339181286549,2.7278626,1.043625,0.4723125,10.486951,-0.57000005,2.55795,-33.65625,-11.512501,4.14375
63.59649122807017,3.1854625,0.4412375,-0.031075,10.486951,-0.57000005,2.55795,-33.65625,-11.512501,4.14375
63.66959064327485,2.6948626,0.4082375,0.3009875,8.02005,-0.14805001,1.2559501,-32.8125,-11.34375,10.8
63.74269005847953,1.4529625,-0.02805,-0.097075,11.127001,0.87600005,2.0029502,-32.8125,-11.34375,10.8
63.815789473684205,2.3894749,0.16995,0.4797375,11.127001,0.87600005,2.0029502,-32.8125,-11.34375,10.8
63.888888888888886,3.8357,-0.2409,0.426525,8.40795,0.42105,2.9989502,-32.5125,-9.7875,16.612501
63.961988304093566,3.8357,-0.2409,0.426525,8.40795,0.42105,2.9989502,-32.5125,-9.7875,16.612501
64.03508771929825,4.0720625,0.0911625,0.1551,8.40795,0.42105,2.9989502,-32.7,-4.9875,20.75625
64.10818713450293,3.059925,0.03685,0.3573625,9.835951,0.48105,2.8270502,-32.7,-4.9875,20.75625
64.1812865497076,3.059925,0.03685,0.3573625,10.165951,0.02805,2.6449502,-32.943752,1.5562501,22.143751
64.25438596491227,2.7960625,-0.853875,0.8234875,9.915001,0.80205005,1.0380001,-32.943752,1.5562501,22.143751
64.32748538011695,2.5246375,-1.4722124,1.2694,9.802051,-0.61305004,-0.609,-32.943752,1.5562501,22.143751
64.40058479532163,1.359325,-0.7506125,0.540375,9.802051,-0.61305004,-0.609,-33.05625,7.6125,18.900002
64.47368421052632,1.359325,-0.7506125,0.540375,9.496051,-0.43305,-0.44895002,-33.05625,7.6125,18.900002
64.546783625731,0.2578125,0.5242875,-0.40039998,8.688001,-3.3600001,-2.7120001,-32.456253,11.212501,12.712501
64.61988304093568,0.0141625,0.0092125,-0.38334998,10.722,1.62495,1.296,-32.456253,11.212501,12.712501
64.69298245614034,2.02345,-0.0994125,0.377575,10.722,1.62495,1.296,-32.456253,11.212501,12.712501
64.76608187134502,2.02345,-0.0994125,0.377575,10.722,1.62495,1.296,-32.456253,11.212501,12.712501
64.8391812865497,2.5086875,-0.2206875,-0.062975,8.953951,0.43305,0.20400001,-32.456253,13.14375,6.1875005
64.91228070175438,2.8535376,0.1326875,0.590425,8.953951,0.43305,0.20400001,-32.456253,13.14375,6.1875005
64.98538011695906,2.8535376,0.1326875,0.590425,9.88605,-1.25205,-0.42900002,-32.456253,13.14375,6.1875005
65.05847953216374,2.3192124,-0.5676,0.1445125,9.429001,-2.59605,0.53205,-32.456253,14.512501,-0.90000004
65.13157894736841,2.046825,-0.57722497,-0.9442125,9.45195,-0.081,1.0500001,-32.456253,14.512501,-0.90000004
65.20467836257309,2.046825,-0.57722497,-0.9442125,9.45195,-0.081,1.0500001,-33.0,15.3,-8.212501
65.27777777777777,2.7523375,-0.427075,-0.6909375,8.181001,1.02705,-0.27405003,-33.0,15.3,-8.212501
65.35087719298245,3.289825,0.423225,-0.049225,8.181001,1.02705,-0.27405003,-33.0,15.3,-8.212501
65.42397660818713,3.289825,0.423225,-0.049225,6.9310503,-1.281,-0.63795,-33.0,15.3,-8.212501
65.49707602339181,3.4133,0.8669375,0.4307875,10.288051,-1.7700001,0.21405001,-33.112503,13.743751,-14.212501
65.5701754385965,3.287625,0.82225,-0.0097625,10.288051,-1.7700001,0.21405001,-33.112503,13.743751,-14.212501
65.64327485380116,3.287625,0.82225,-0.0097625,10.585051,-1.38195,0.156,-32.8125,8.887501,-17.8875
65.71637426900584,2.7523375,0.4785,-0.311025,10.03695,-0.47895002,0.33405003,-32.8125,8.887501,-17.8875
65.78947368421052,1.2508374,0.341275,-0.0257125,9.26595,-1.6360501,-0.28095,-32.943752,2.5875,-19.3125
65.8625730994152,1.2508374,0.341275,-0.0257125,9.26595,-1.6360501,-0.28095,-32.943752,2.5875,-19.3125
65.93567251461988,0.3163875,0.4753375,-0.1821875,9.60795,4.2460504,7.9950004,-32.943752,2.5875,-19.3125
66.00877192982456,-0.1104125,1.2607375,-0.2875125,9.60795,4.2460504,7.9950004,-32.943752,2.5875,-19.3125
66.08187134502924,-0.4838625,0.6637125,0.15413749,10.64805,0.588,4.848,-32.8875,-3.7875001,-16.6875
66.15497076023391,0.215325,0.0996875,0.3317875,10.64805,0.588,4.848,-32.8875,-3.7875001,-16.6875
66.22807017543859,1.2102749,0.177375,0.996875,9.879001,-1.5679501,1.608,-32.8875,-3.7875001,-16.6875
66.30116959064327,0.32285,-0.3526875,-0.177925,7.7779503,0.34905002,2.5129502,-33.487503,-8.45625,-11.75625
66.37426900584795,0.507925,-0.936925,-0.0715,7.7779503,0.34905002,2.5129502,-33.487503,-8.45625,-11.75625
66.44736842105263,0.507925,-0.936925,-0.0715,7.7779503,0.34905002,2.5129502,-33.487503,-8.45625,-11.75625
66.52046783625731,0.853875,-1.1891,-0.716375,7.8,1.149,-0.11805001,-34.2,-12.543751,-7.3875003
66.59356725146199,0.7634,-0.5963375,0.1593625,7.8,1.149,-0.11805001,-34.2,-12.543751,-7.3875003
66.66666666666666,0.9953625,0.31033748,-0.1236125,10.056001,2.1019502,0.99495006,-34.5,-16.5,-2.2875001
66.73976608187134,1.3539625,0.72008747,0.212575,10.056001,2.1019502,0.99495006,-34.987503,-17.75625,3.1125002
66.81286549707602,2.7588,1.31395,0.2572625,10.36695,1.04295,4.08195,-34.987503,-17.75625,3.1125002
66.8859649122807,2.7588,1.31395,0.2572625,10.36695,1.04295,4.08195,-34.912502,-18.0,8.94375
66.95906432748538,3.3100374,0.993575,0.75116247,10.36695,1.04295,4.08195,-34.912502,-18.0,8.94375
67.03216374269006,3.42595,0.1507,-0.049225,8.784,2.5159502,2.83605,-34.912502,-18.0,8.94375
67.10526315789474,3.42595,0.1507,-0.049225,8.784,2.5159502,2.83605,-34.5,-16.3125,13.44375
67.1783625730994,2.6576,0.1709125,-0.05445,9.081,1.5510001,1.7539501,-34.5,-16.3125,13.44375
67.25146198830409,1.63075,0.0581625,1.6556375,10.486951,1.2730501,1.43295,-34.5,-16.3125,13.44375
67.32456140350877,1.63075,0.0581625,1.6556375,10.486951,1.2730501,1.43295,-34.800003,-12.3,15.843751
67.39766081871345,1.112375,0.64556247,1.4757875,10.486951,1.2730501,1.43295,-34.800003,-12.3,15.843751
67.47076023391813,0.997425,-0.0994125,1.0714,9.74205,-2.3800502,2.35995,-34.800003,-12.3,15.843751
67.54385964912281,1.310375,-0.6271375,0.1764125,9.74205,-2.3800502,2.35995,-35.5125,-7.2000003,15.900001
67.61695906432749,1.7562875,-0.282425,-1.094225,10.894051,1.1389501,-0.453,-35.5125,-7.2000003,15.900001
67.69005847953215,1.7562875,-0.282425,-1.094225,10.894051,1.1389501,-0.453,-35.5125,-7.2000003,15.900001
67.76315789473684,2.2053626,-0.051425,0.7723375,9.26805,0.042,-0.07995001,-35.4,-1.5,14.45625
67.83625730994152,2.2606375,0.667975,0.47753748,7.8739505,1.52505,0.68595004,-35.4,-1.5,14.45625
67.9093567251462,2.1234124,0.3359125,0.484,7.8739505,1.52505,0.68595004,-35.4,-1.5,14.45625
67.98245614035088,2.913075,0.5126,-0.4131875,8.17095,0.77805007,1.5649501,-34.55625,4.9875,13.087501
68.05555555555556,2.6778126,0.436975,-0.54725,8.17095,0.77805007,1.5649501,-34.55625,4.9875,13.087501
68.12865497076022,2.6778126,0.436975,-0.54725,9.405001,-0.01695,1.6290001,-34.0875,10.9125,10.14375
68.2017543859649,1.3635875,-0.1035375,-0.84095,7.6129503,2.3059502,-0.69795,-34.0875,10.9125,10.14375
68.27485380116958,1.847725,0.6285125,1.9344875,10.879951,1.1370001,1.1050501,-33.05625,15.000001,5.45625
68.34795321637426,1.9424624,0.24007499,1.6504124,10.879951,1.1370001,1.1050501,-33.05625,15.000001,5.45625
68.42105263157895,1.752025,0.07095,0.7063375,10.16895,0.09495001,1.5960001,-33.05625,15.000001,5.45625
68.49415204678363,1.7807624,0.2283875,-0.0342375,10.16895,0.09495001,1.5960001,-32.4,17.34375,-1.44375
68.5672514619883,1.7807624,0.2283875,-0.0342375,10.24995,-0.31605002,1.55505,-32.4,17.34375,-1.44375
68.64035087719297,2.6481125,-0.6452875,0.52648747,9.09795,-1.5450001,0.24495001,-32.04375,17.643751,-8.512501
68.71345029239765,2.7258,-0.3504875,0.37015,9.09795,-1.5450001,0.24495001,-32.04375,17.643751,-8.512501
68.78654970760233,2.7790124,0.290125,-0.0193875,10.5060005,-1.1590501,1.6150501,-32.04375,17.643751,-8.512501
68.85964912280701,2.636425,0.07095,-0.048125,10.5060005,-1.1590501,1.6150501,-31.44375,15.6,-14.512501
68.9327485380117,2.636425,0.07095,-0.048125,9.46695,-1.2430501,1.4280001,-31.44375,15.6,-14.512501
69.00584795321637,2.2958374,-0.25795,0.0147125,10.743001,-1.36995,1.299,-31.44375,15.6,-14.512501
69.07894736842105,1.9085,-0.2930125,0.04015,8.76,0.40395,-0.90795004,-30.843752,10.9125,-18.4125
69.15204678362572,2.1712625,0.061325,0.4296875,8.76,0.40395,-0.90795004,-30.843752,10.9125,-18.4125
69.2251461988304,1.815825,1.1947374,0.4851,13.46205,1.3810501,4.3240504,-30.956251,4.4437504,-19.6875
69.29824561403508,1.425325,0.3348125,0.476575,13.46205,1.3810501,4.3240504,-30.956251,4.4437504,-19.6875
69.37134502923976,1.425325,0.3348125,0.476575,13.46205,1.3810501,4.3240504,-30.956251,4.4437504,-19.6875
69.44444444444444,1.5445375,0.079475,0.9703375,9.33495,-1.81305,2.1370502,-31.312502,-2.7,-18.487501
69.51754385964912,0.786775,-0.13653749,-0.8292625,9.33495,-1.81305,2.1370502,-31.312502,-2.7,-18.487501
69.5906432748538,0.7910375,0.5157625,-0.066275,8.299951,-0.03795,4.42695,-31.800001,-8.212501,-14.94375
69.66374269005847,2.587475,0.812625,0.92565,7.0290003,0.01605,5.109,-31.800001,-8.212501,-14.94375
69.73684210526315,2.587475,0.812625,0.92565,7.0290003,0.01605,5.109,-31.800001,-8.212501,-14.94375
69.80994152046783,4.0709624,0.21133749,1.555675,7.0290003,0.01605,5.109,-33.112503,-11.75625,-9.7875
69.88304093567251,4.0709624,0.21133749,1.555675,9.508051,0.31800002,4.2400503,-33.112503,-11.75625,-9.7875
69.95614035087719,2.87155,0.439175,1.096975,8.32005,-1.9540501,3.0640502,-33.112503,-11.75625,-9.7875
70.02923976608187,1.0570999,0.6765,1.2150875,8.32005,-1.9540501,3.0640502,-34.3125,-13.200001,-3.6562502
70.10233918128655,1.20285,0.4657125,0.4063125,9.19095,-0.47895002,6.2970004,-34.3125,-13.200001,-3.6562502
70.17543859649122,2.1148875,0.2198625,0.38073748,9.77295,-0.19395001,5.9020505,-35.643753,-11.2875,1.9125
70.2485380116959,1.92445,0.0433125,1.0778625,9.77295,-0.19395001,5.9020505,-35.643753,-11.2875,1.9125
70.32163742690058,2.6310625,-0.313225,1.6471125,9.036,-0.47895002,5.3700004,-35.643753,-11.2875,1.9125
70.39473684210526,1.8106,-0.3377,0.5594875,9.036,-0.47895002,5.3700004,-35.643753,-11.2875,1.9125
70.46783625730994,1.7158625,-0.6549125,0.6925875,9.031051,0.02595,4.70895,-36.300003,-7.2000003,5.64375
70.54093567251462,1.8977749,-0.65587497,0.6595875,9.306001,0.078,2.628,-36.300003,-7.2000003,5.64375
70.61403508771929,1.604075,-0.51865,0.3839,9.306001,0.078,2.628,-36.24375,-1.3125,7.2000003
70.68713450292397,1.8882875,-0.1441,0.2646875,9.79695,1.9990501,3.7420502,-36.24375,-1.3125,7.2000003
70.76023391812865,2.3926375,-0.6111875,0.1126125,9.79695,1.9990501,3.7420502,-36.24375,-1.3125,7.2000003
70.83333333333333,2.3926375,-0.6111875,0.1126125,10.08495,1.8240001,3.7080002,-35.643753,5.2875004,5.9437504
70.90643274853801,2.7896,-1.2656875,-0.1194875,11.685,-0.093,-0.10395,-35.643753,5.2875004,5.9437504
70.97953216374269,2.8821375,-1.1316249,-0.9229,11.685,-0.093,-0.10395,-35.2125,11.400001,2.04375
71.05263157894737,3.2377124,-1.688225,-0.6813125,8.68095,1.149,-3.3319502,-35.2125,11.400001,2.04375
71.12573099415204,3.3462,-1.8191249,-1.0803375,8.68095,1.149,-3.3319502,-34.55625,15.95625,-3.6562502
71.19883040935672,3.0003874,-0.5900125,-0.84947497,6.2770505,1.7479501,-5.8350005,-34.55625,15.95625,-3.6562502
71.2719298245614,2.0255125,0.7744,-0.749375,6.2770505,1.7479501,-5.8350005,-34.55625,15.95625,-3.6562502
71.34502923976608,1.6168625,1.9300874,0.147675,9.175051,-1.65495,-5.097,-33.956253,16.743752,-9.1125
71.41812865497076,1.243275,2.1088376,-0.7547375,9.175051,-1.65495,-5.097,-33.956253,16.743752,-9.1125
71.49122807017544,1.243275,2.1088376,-0.7547375,9.369,-1.0339501,-4.24695,-33.956253,16.743752,-9.1125
71.56432748538012,1.3539625,2.009975,-0.9175375,9.868951,0.36600003,-0.48195,-33.956253,16.743752,-9.1125
71.63742690058479,1.6413375,0.83503747,0.8372375,12.970951,-1.02705,1.7830501,-33.956253,15.3,-12.056251
71.71052631578947,1.457225,-0.183425,0.07645,12.970951,-1.02705,1.7830501,-33.956253,15.3,-12.056251
71.78362573099415,1.457225,-0.183425,0.07645,12.970951,-1.02705,1.7830501,-33.600002,11.400001,-14.156251
71.85672514619883,1.7978125,-0.0099,-0.5897375,8.272051,-0.14595,0.19005,-33.600002,11.400001,-14.156251
71.9298245614035,2.420275,-0.0152625,-0.5526125,8.78205,1.36395,-0.83895004,-33.600002,11.400001,-14.156251
72.00292397660819,2.8215,-0.201575,-0.242825,9.328051,1.67805,-1.2250501,-33.0,5.15625,-15.6
72.07602339181287,3.74,-0.168575,-0.295075,8.86095,-1.7119501,-2.259,-33.0,5.15625,-15.6
72.14912280701753,3.1854625,0.681725,-0.0704,8.86095,-1.7119501,-2.259,-33.0,5.15625,-15.6
72.22222222222221,1.898875,1.664025,-0.4855125,10.738951,1.9440001,1.332,-32.8875,-1.6125001,-14.75625
72.2953216374269,2.1478875,1.8492374,0.459525,10.738951,1.9440001,1.332,-32.8875,-1.6125001,-14.75625
72.36842105263158,2.7055874,1.3734875,0.931975,7.96995,-0.05205,4.5679502,-32.8875,-1.6125001,-14.75625
72.44152046783626,3.4463,0.69355,1.2342,7.96995,-0.05205,4.5679502,-32.8125,-8.2875,-10.9875
72.51461988304094,3.4463,0.69355,1.2342,7.96995,-0.05205,4.5679502,-32.8125,-8.2875,-10.9875
72.58771929824562,3.4717374,-0.0886875,1.195975,11.907001,-3.8100002,0.80295,-32.643753,-12.843751,-4.5
72.66081871345028,1.6498625,-1.1518375,0.3158375,11.907001,-3.8100002,0.80295,-32.643753,-12.843751,-4.5
72.73391812865496,1.292225,1.551275,0.720225,9.547951,0.40605003,3.1960502,-33.54375,-15.000001,1.5
72.80701754385964,1.292225,1.551275,0.720225,10.008,-1.248,4.07205,-33.54375,-15.000001,1.5
72.88011695906432,1.540275,0.8382,0.624525,9.726001,1.9270501,5.7630005,-33.54375,-15.000001,1.5
72.953216374269,2.3214126,-1.6413375,0.286,10.05405,0.45405003,3.38505,-33.7125,-12.3,6.24375
73.02631578947368,2.650175,-1.07525,-0.1502875,10.05405,0.45405003,3.38505,-33.7125,-12.3,6.24375
73.09941520467837,2.4352624,-0.4079625,0.4200625,7.9750504,2.32995,3.3610501,-33.7125,-12.3,6.24375
73.17251461988303,2.4352624,-0.4079625,0.4200625,8.01105,2.25105,2.70495,-33.1875,-6.7125,7.9125004
73.24561403508771,2.7449124,0.1986875,0.3243625,9.0720005,1.28805,2.1780002,-33.1875,-6.7125,7.9125004
73.31871345029239,2.3681624,-0.0972125,0.113575,6.22905,1.3759501,0.52995,-33.1875,-6.7125,7.9125004
73.39181286549707,1.9712,1.0319375,-0.5270375,6.22905,1.3759501,0.52995,-32.456253,-0.24375,7.4437504
73.46491228070175,1.9712,1.0319375,-0.5270375,6.22905,1.3759501,0.52995,-32.456253,-0.24375,7.4437504
73.53801169590643,2.044625,0.4360125,0.8223875,9.936001,1.5300001,0.85800004,-32.5875,6.05625,6.8437505
73.6111111111111,1.9595125,-0.4005375,-0.2811875,9.936001,1.5300001,0.85800004,-32.5875,6.05625,6.8437505
73.68421052631578,1.9595125,-0.4005375,-0.2811875,9.687,1.5970501,1.35405,-32.5875,6.05625,6.8437505
73.75730994152046,1.53285,-0.7293,-0.9420125,9.60795,3.1990502,-0.57600003,-32.5875,11.512501,3.6562502
73.83040935672514,2.0031,-0.0908875,0.10615,5.15595,2.9310002,-2.19195,-32.5875,11.512501,3.6562502
73.90350877192982,1.325225,1.8566625,1.64285,5.15595,2.9310002,-2.19195,-32.34375,15.4125,-2.34375
73.9766081871345,2.176625,2.409,0.34347498,11.062051,0.56205004,2.02905,-32.34375,15.4125,-2.34375
74.04970760233918,0.6419875,-0.0897875,1.0426625,11.062051,0.56205004,2.02905,-32.34375,15.4125,-2.34375
74.12280701754385,0.2057,0.894575,0.656425,11.356951,4.2720003,1.0570501,-32.34375,15.4125,-2.34375
74.19590643274853,0.9592,0.5339125,1.324675,11.139001,0.21705002,3.1980002,-32.5875,15.900001,-9.4875
74.26900584795321,0.6974,-0.362175,0.7096375,11.139001,0.21705002,3.1980002,-31.987501,13.743751,-15.4125
74.34210526315789,1.23695,-0.4048,0.616,11.79195,-1.28805,2.19,-31.987501,13.743751,-15.4125
74.41520467836257,1.1561,-0.242,0.3201,11.79195,-1.28805,2.19,-31.987501,13.743751,-15.4125
74.48830409356725,1.5923874,-0.45155,0.60101247,8.710051,-1.353,1.3560001,-30.843752,8.45625,-20.34375
74.56140350877193,1.3178,0.0347875,-0.2024,8.710051,-1.353,1.3560001,-30.843752,8.45625,-20.34375
74.6345029239766,1.3178,0.0347875,-0.2024,9.325951,-0.78300005,1.7149501,-29.812502,2.4,-24.35625
74.70760233918128,2.993925,-0.6441875,0.4126375,9.823951,0.933,2.1730502,-29.812502,2.4,-24.35625
74.78070175438596,4.2263374,-0.870925,0.132825,9.37605,-2.028,0.86505,-30.112501,-4.14375,-25.743752
74.85380116959064,2.2979,0.34759998,-0.307725,9.37605,-2.028,0.86505,-30.112501,-4.14375,-25.743752
74.92690058479532,1.4540625,0.5445,0.4404125,8.31495,-3.288,-0.92805004,-30.112501,-4.14375,-25.743752
75.0,1.491325,-0.02805,0.6149,8.31495,-3.288,-0.92805004,-29.812502,-10.44375,-25.3875
75.07309941520468,2.309725,-0.2184875,0.003025,9.64395,-0.49995002,0.30195,-29.812502,-10.44375,-25.3875
75.14619883040935,2.685375,-0.2547875,0.427625,9.64395,-0.49995002,0.30195,-30.112501,-15.656251,-21.487501
75.21929824561403,2.685375,-0.2547875,0.427625,8.88195,-0.82395005,2.0770502,-30.112501,-15.656251,-21.487501
75.29239766081871,3.707,0.088,0.2233,8.88195,-0.82395005,2.0770502,-30.112501,-15.656251,-21.487501
75.36549707602339,2.2671,0.5902875,-0.9420125,8.88195,-0.82395005,2.0770502,-30.112501,-15.656251,-21.487501
75.43859649122807,1.162425,1.3660625,0.56595,8.122951,-0.67005,2.8270502,-30.7875,-18.487501,-14.587501
75.51169590643275,0.25355,0.177375,-0.0501875,9.073951,-0.23895001,2.1709502,-30.7875,-18.487501,-14.587501
75.58479532163743,0.25355,0.177375,-0.0501875,9.073951,-0.23895001,2.1709502,-30.7875,-18.487501,-14.587501
75.6578947368421,0.6760875,-0.4494875,0.476575,10.111051,1.06005,3.48795,-30.843752,-18.243752,-7.74375
75.73099415204678,1.114575,-0.609125,0.1626625,10.111051,1.06005,3.48795,-30.843752,-18.243752,-7.74375
75.80409356725146,1.3391125,-0.3696,0.0125125,10.111051,1.06005,3.48795,-30.7875,-14.512501,-1.2
75.87719298245614,0.935825,-0.2600125,0.2105125,9.75405,-0.63705003,3.1290002,-30.7875,-14.512501,-1.2
75.95029239766082,0.216425,0.1199,0.43821248,9.75405,-0.63705003,3.1290002,-30.7875,-14.512501,-1.2
76.0233918128655,0.6749875,0.505175,0.52442497,9.073951,-1.38405,2.29005,-31.556252,-8.64375,3.35625
76.09649122807018,2.3511126,-0.0132,0.721325,9.073951,-1.38405,2.29005,-31.556252,-8.64375,3.35625
76.16959064327484,3.2685125,-0.2770625,0.1115125,10.405951,-0.24195,4.8310504,-31.9125,-2.4562502,7.6875005
76.24269005847952,3.42925,-0.12705,0.13805,10.405951,-0.24195,4.8310504,-31.9125,-2.4562502,7.6875005
76.3157894736842,3.42925,-0.12705,0.13805,9.229951,-0.711,5.2309504,-31.9125,-2.4562502,7.6875005
76.38888888888889,3.321725,-0.0994125,0.557425,9.229951,-0.711,5.2309504,-31.85625,3.9562502,10.387501
76.46198830409357,2.6640625,-0.76559997,0.6914875,9.547951,-0.246,3.4140003,-31.85625,3.9562502,10.387501
76.53508771929825,2.7875376,-1.4051125,0.604175,9.547951,-0.246,3.4140003,-31.85625,3.9562502,10.387501
76.60818713450291,2.38205,-0.6463875,0.0284625,10.125001,0.11895001,2.7570002,-31.44375,11.45625,11.45625
76.6812865497076,2.34685,-0.133375,-0.1417625,10.125001,0.11895001,2.7570002,-31.44375,11.45625,11.45625
76.75438596491227,2.897125,0.6859875,0.115775,9.86205,-0.47400004,0.14895001,-30.6,18.056252,8.1
76.82748538011695,3.55685,1.254275,-0.1810875,9.86205,-0.47400004,0.14895001,-30.6,18.056252,8.1
76.90058479532163,2.060575,0.8041,1.2214125,8.025001,0.14505,1.1740501,-30.6,18.056252,8.1
76.97368421052632,0.8985625,-0.491975,-0.295075,8.025001,0.14505,1.1740501,-30.6,18.056252,8.1
77.046783625731,1.7116,-1.0954624,-0.12045,10.924951,-0.28005,2.6590502,-30.000002,22.0125,1.3125
77.11988304093566,2.5012624,-0.8006625,1.1490875,10.924951,-0.28005,2.6590502,-30.000002,22.0125,1.3125
77.19298245614034,1.701975,0.9585125,-0.014025,7.9819503,2.25795,0.25695002,-30.000002,22.556252,-5.45625
77.26608187134502,1.701975,0.9585125,-0.014025,7.9819503,2.25795,0.25695002,-30.000002,22.556252,-5.45625
77.3391812865497,1.5912875,0.8393,0.310475,9.687,-1.506,-0.14400001,-30.000002,22.556252,-5.45625
77.41228070175438,2.4948,-0.494175,0.22,11.457001,-0.44805002,2.7640502,-29.643751,18.7875,-11.94375
77.48538011695906,2.5427876,-1.0263,-0.179025,12.05805,-0.70605004,2.8240502,-29.643751,18.7875,-11.94375
77.55847953216374,3.2280874,-0.804925,-0.3397625,12.05805,-0.70605004,2.8240502,-29.343752,12.7875,-15.4875
77.63157894736841,3.928375,-0.05995,0.1029875,8.64795,0.711,0.702,-29.343752,12.7875,-15.4875
77.70467836257309,3.1068125,0.9053,-1.2379125,8.64795,0.711,0.702,-29.343752,12.7875,-15.4875
77.77777777777777,3.2940874,1.566125,-0.4706625,10.468051,-3.00795,-0.59505004,-29.8875,5.8875003,-17.1
77.85087719298245,1.639275,1.483075,-0.0853875,10.468051,-3.00795,-0.59505004,-29.8875,5.8875003,-17.1
77.92397660818713,1.639275,1.483075,-0.0853875,9.78495,0.40905002,2.35305,-30.35625,-1.0125,-16.85625
77.99707602339181,2.6629624,0.7360375,0.8426,9.78495,0.40905002,2.35305,-30.35625,-1.0125,-16.85625
78.0701754385965,2.6629624,0.7360375,0.8426,9.78495,0.40905002,2.35305,-30.35625,-1.0125,-16.85625
78.14327485380116,3.4057374,-0.12595,0.457325,8.33205,0.162,6.2130003,-30.35625,-1.0125,-16.85625
78.21637426900584,0.7931,-1.2423126,0.7671125,10.120951,0.25800002,4.839,-31.2,-10.9125,-7.74375
78.28947368421052,0.412225,-0.2781625,0.40315,5.1220503,2.8590002,4.39995,-31.2,-10.9125,-7.74375
78.3625730994152,0.3152875,0.5647125,0.517,9.129001,2.38695,-0.279,-31.2,-10.9125,-7.74375
78.43567251461988,1.9531875,0.4796,0.8457625,9.129001,2.38695,-0.279,-31.2,-10.9125,-7.74375
78.50877192982456,1.9531875,0.4796,0.8457625,10.89,1.8600001,2.2470002,-32.287502,-11.34375,-1.9875001
78.58187134502924,3.4068375,-0.6686625,0.442475,10.89,1.8600001,2.2470002,-32.287502,-11.34375,-1.9875001
78.65497076023391,3.5303125,-0.78045,0.1434125,11.428051,1.17495,2.628,-32.8875,-8.45625,1.7437501
78.72807017543859,2.731025,-0.4409625,-0.3014,9.120001,-1.2760501,4.7070003,-32.8875,-8.45625,1.7437501
78.80116959064327,2.731025,-0.4409625,-0.3014,9.523951,-1.7190001,2.6569502,-33.300003,-3.05625,5.2875004
78.87426900584795,1.8786625,-0.41965,0.116875,9.523951,-1.7190001,2.6569502,-33.300003,-3.05625,5.2875004
78.94736842105263,1.344475,-0.5687,0.4169,9.523951,-1.7190001,2.6569502,-33.300003,-3.05625,5.2875004
79.02046783625731,1.995675,-0.004675,0.8320125,10.803,0.49005002,1.299,-33.0,3.54375,6.9
79.09356725146199,2.44805,0.9552125,0.311575,10.803,0.49005002,1.299,-33.0,3.54375,6.9
79.16666666666666,2.44805,0.9552125,0.311575,7.7419505,2.14995,0.822,-32.04375,10.14375,4.6125
79.23976608187134,3.36325,1.4150125,-0.340725,8.02995,-0.711,0.08400001,-32.04375,10.14375,4.6125
79.31286549707602,2.3957999,1.682175,0.1838375,8.02995,-0.711,0.08400001,-32.04375,10.14375,4.6125
79.3859649122807,1.7796625,0.6062375,0.6106375,6.6790504,-1.779,6.2250004,-31.3875,15.000001,0.4875
79.45906432748538,1.489125,-0.903925,0.311575,6.6790504,-1.779,6.2250004,-31.3875,15.000001,0.4875
79.53216374269006,2.1680999,-1.427525,0.5478,10.389001,0.83805007,5.61,-31.3875,15.000001,0.4875
79.60526315789473,2.1680999,-1.427525,0.5478,10.389001,0.83805007,5.61,-31.612501,17.8875,-5.8125
79.6783625730994,2.306425,-0.80602497,0.39985,8.305051,1.2610501,3.2290502,-31.612501,17.8875,-5.8125
79.75146198830409,3.1812,-0.51975,1.18525,8.305051,1.2610501,3.2290502,-30.7875,16.5,-13.14375
79.82456140350877,3.1812,-0.51975,1.18525,8.305051,1.2610501,3.2290502,-30.7875,16.5,-13.14375
79.89766081871345,2.9492376,-0.4346375,-0.144925,10.98795,-1.5109501,1.3750501,-30.7875,16.5,-13.14375
79.97076023391813,1.849925,-0.32395,-0.1236125,10.98795,-1.5109501,1.3750501,-30.7875,16.5,-13.14375
80.04385964912281,2.5289,-0.68365,0.1604625,10.597051,-2.5459502,0.96795005,-29.343752,12.6,-18.54375
80.11695906432747,3.829375,-0.671825,-0.3972375,10.597051,-2.5459502,0.96795005,-29.343752,12.6,-18.54375
80.19005847953215,2.649075,-0.1131625,-0.880275,9.52005,0.81600004,0.29805002,-28.612501,6.7875004,-20.2875
80.26315789473684,2.649075,-0.1131625,-0.880275,9.80895,-5.82,0.25395,-28.612501,6.7875004,-20.2875
80.33625730994152,0.6664625,1.3937,-2.70435,9.80895,-5.82,0.25395,-28.612501,6.7875004,-20.2875
80.4093567251462,1.1709499,0.814825,0.509575,12.130051,-5.53695,-0.51105005,-28.9125,0.71250004,-19.612501
80.48245614035088,1.9595125,1.4064875,0.9351375,5.46705,3.0580502,-0.075,-28.9125,0.71250004,-19.612501
80.55555555555556,2.4330626,1.2915375,0.7106,5.46705,3.0580502,-0.075,-28.9125,0.71250004,-19.612501
80.62865497076022,3.7079625,0.9818875,1.2384624,9.096001,0.98805004,3.21195,-29.75625,-5.45625,-16.9125
80.7017543859649,4.104925,0.650925,1.5811125,8.454,1.554,4.6540504,-29.75625,-5.45625,-16.9125
80.77485380116958,4.0198126,-0.0875875,2.2059126,8.454,1.554,4.6540504,-30.300001,-9.4875,-10.6125
80.84795321637426,2.0106626,-1.4807374,-0.3460875,9.679951,-0.381,4.98495,-30.300001,-9.4875,-10.6125
80.92105263157895,1.6264875,-0.32395,0.23815,9.679951,-0.381,4.98495,-30.300001,-9.4875,-10.6125
80.99415204678363,1.023,0.62535,-0.2875125,7.8409505,1.18005,0.92505,-31.087502,-11.587501,-4.3125
81.0672514619883,1.7147624,0.4104375,0.67347497,7.8409505,1.18005,0.92505,-31.087502,-11.587501,-4.3125
81.14035087719297,1.7147624,0.4104375,0.67347497,10.425,2.49195,2.661,-31.800001,-10.5,0.90000004
81.21345029239765,2.44805,-0.5995,1.3044626,10.425,2.49195,2.661,-31.800001,-10.5,0.90000004
81.28654970760233,2.4523125,-0.622875,0.509575,10.518001,2.16405,2.43195,-31.800001,-10.5,0.90000004
81.35964912280701,2.456575,-0.5687,0.065725,9.472051,0.64605004,3.7750502,-32.8125,-5.4,4.2562504
81.4327485380117,2.456575,-0.5687,0.065725,9.13605,-0.42600003,2.26395,-32.8125,-5.4,4.2562504
81.50584795321637,3.255725,-1.163525,-0.28325,9.13605,-0.42600003,2.26395,-32.8125,-5.4,4.2562504
81.57894736842105,4.059275,-0.06105,-0.9846375,9.771001,0.18105,1.9410001,-34.0125,0.41250002,6.6000004
81.65204678362572,2.5405874,-0.17379999,-1.0549,9.73995,-0.85995007,0.32595003,-34.0125,0.41250002,6.6000004
81.7251461988304,2.4979625,0.13585,-0.88783747,9.73995,-0.85995007,0.32595003,-34.0125,0.41250002,6.6000004
81.79824561403508,2.4979625,0.13585,-0.88783747,8.875051,-0.81405,-0.46800002,-33.84375,6.7125,5.7562504
81.87134502923976,1.523225,1.4086875,0.9735,8.875051,-0.81405,-0.46800002,-33.84375,6.7125,5.7562504
81.94444444444444,3.042875,1.876875,-0.014025,8.133,2.3029501,0.20895001,-33.412502,11.400001,1.7437501
82.01754385964912,3.042875,1.876875,-0.014025,8.133,2.3029501,0.20895001,-33.412502,11.400001,1.7437501
82.09064327485379,-0.064625,0.46145,0.6169625,8.133,2.3029501,0.20895001,-33.412502,11.400001,1.7437501
82.16374269005847,1.047475,-1.2412125,-0.375925,9.80895,-3.28605,3.1639502,-33.412502,11.400001,1.7437501
82.23684210526315,1.047475,-1.2412125,-0.375925,12.501,0.126,1.098,-33.05625,12.6,-3.7875001
82.30994152046783,2.2,0.3487,1.0671375,10.176001,2.9190001,1.2100501,-33.05625,12.6,-3.7875001
82.38304093567251,2.7757125,1.289475,0.7585875,10.176001,2.9190001,1.2100501,-32.8875,11.1,-10.387501
82.45614035087719,1.56475,1.0382625,0.8479625,7.3780503,0.38505003,-0.00795,-32.8875,11.1,-10.387501
82.52923976608187,1.56475,1.0382625,0.8479625,7.3780503,0.38505003,-0.00795,-32.8875,11.1,-10.387501
82.60233918128654,1.5679125,0.94888747,0.6914875,8.736,-0.57495004,3.6649501,-32.8875,11.1,-10.387501
82.67543859649122,1.0858375,0.2880625,0.0039875,8.736,-0.57495004,3.6649501,-31.800001,8.587501,-15.712501
82.7485380116959,2.3266375,-0.1780625,0.4701125,8.736,-0.57495004,3.6649501,-31.800001,8.587501,-15.712501
82.82163742690058,2.4682624,-0.84328747,0.3988875,8.93295,0.12105001,4.36905,-30.900002,3.4125001,-18.54375
82.89473684210526,2.6236374,-1.0901,1.4535125,8.93295,0.12105001,4.36905,-30.900002,3.4125001,-18.54375
82.96783625730994,2.030875,-0.8592375,-0.02365,9.205951,1.0200001,0.98295003,-30.900002,3.4125001,-18.54375
83.04093567251462,2.030875,-0.8592375,-0.02365,13.356001,-1.3050001,1.0879501,-30.900002,3.4125001,-18.54375
83.11403508771929,2.7460124,-0.3334375,0.66165,13.356001,-1.3050001,1.0879501,-30.900002,-3.1875002,-18.7875
83.18713450292397,2.9077125,0.7062,0.604175,11.721001,-0.36405003,0.786,-30.900002,-3.1875002,-18.7875
83.26023391812865,3.36215,0.7722,0.7255875,9.964951,-2.232,0.58305,-30.900002,-3.1875002,-18.7875
83.33333333333333,3.36215,0.7722,0.7255875,9.964951,-2.232,0.58305,-30.843752,-9.543751,-17.1
83.40643274853801,3.36325,0.0539,0.573375,9.0720005,-1.8730501,4.05495,-30.843752,-9.543751,-17.1
83.47953216374269,2.7130125,-0.510125,0.4712125,8.69295,-1.9759501,3.7510502,-31.500002,-14.700001,-12.187501
83.55263157894737,1.9691374,-0.5240125,0.5148,9.82905,-4.5100503,3.4780502,-31.500002,-14.700001,-12.187501
83.62573099415204,1.4603875,-0.71335,0.1051875,9.82905,-4.5100503,3.4780502,-31.500002,-14.700001,-12.187501
83.69883040935672,1.6434,-0.952875,0.1689875,14.583001,-1.9039501,0.84105,-31.500002,-16.5,-5.7562504
83.7719298245614,2.1638374,-0.6336,0.5531625,14.583001,-1.9039501,0.84105,-31.500002,-16.5,-5.7562504
83.84502923976608,2.1415625,0.337975,0.3839,9.802051,0.02295,2.9869502,-31.612501,-13.200001,-0.1875
83.91812865497076,2.54375,0.6210875,0.79254997,10.011001,0.31500003,1.4899501,-31.612501,-13.200001,-0.1875
83.99122807017544,2.67685,-0.034375,0.85855,10.011001,0.31500003,1.4899501,-31.612501,-13.200001,-0.1875
84.06432748538012,2.67685,-0.034375,0.85855,9.019051,-0.29205,5.0950503,-31.800001,-7.2000003,3.3000002
84.13742690058479,1.6572875,-0.5451875,0.0955625,9.019051,-0.29205,5.0950503,-31.800001,-7.2000003,3.3000002
84.21052631578947,1.6572875,-0.5451875,0.0955625,9.019051,-0.29205,5.0950503,-31.800001,-7.2000003,3.3000002
84.28362573099415,2.2532125,-0.2547875,1.1257125,9.651,-0.26295,3.8160002,-31.9125,-0.35625002,6.05625
84.35672514619883,1.7477624,-0.74855,0.163625,10.141951,-0.47895002,2.6569502,-31.9125,-0.35625002,6.05625
84.4298245614035,1.7477624,-0.74855,0.163625,9.06,-0.21105,4.0290003,-31.9125,-0.35625002,6.05625
84.50292397660819,1.1444125,-0.5644375,0.41799998,9.967051,0.36105,4.9510503,-31.612501,6.9,5.5875
84.57602339181287,1.6179625,-0.836825,-0.0928125,9.967051,0.36105,4.9510503,-31.612501,6.9,5.5875
84.64912280701753,1.456125,-0.88577497,-0.5333625,9.967051,0.36105,4.9510503,-30.000002,12.95625,2.8125
84.72222222222221,1.456125,-0.88577497,-0.5333625,9.10995,-6.2239504,-1.28205,-30.000002,12.95625,2.8125
84.7953216374269,1.23475,-0.0664125,1.0852875,9.10995,-6.2239504,-1.28205,-30.000002,12.95625,2.8125
84.86842105263158,1.0784125,-0.12595,-0.1183875,9.10995,-6.2239504,-1.28205,-28.687502,17.75625,-1.8000001
84.94152046783626,2.1373,-0.002475,-0.1056,10.01805,-0.75195,1.66005,-28.687502,17.75625,-1.8000001
85.01461988304094,2.8353875,-0.101475,0.66275,10.01805,-0.75195,1.66005,-27.6,20.456251,-8.512501
85.0877192982456,2.8353875,-0.101475,0.66275,8.566051,1.7860501,0.15195,-27.6,20.456251,-8.512501
85.16081871345028,3.8399625,0.765875,-0.8921,8.95695,-3.62805,1.6390501,-27.6,20.456251,-8.512501
85.23391812865496,1.46355,-0.1728375,1.195975,17.362951,2.1979501,7.3030505,-27.6,20.456251,-8.512501
85.30701754385964,1.6775,-0.09185,0.2765125,8.40795,0.57600003,2.427,-27.487501,19.800001,-15.4125
85.38011695906432,0.737825,0.4082375,-0.64515,8.40795,0.57600003,2.427,-27.487501,19.800001,-15.4125
85.453216374269,3.207875,0.191125,0.032725,9.948001,1.7760001,3.18405,-27.487501,19.800001,-15.4125
85.52631578947368,3.207875,0.191125,0.032725,9.40695,1.4770501,3.1620002,-27.54375,15.7875,-20.587502
85.59941520467835,2.878975,-0.4005375,1.02135,9.199051,0.83805007,0.78405005,-27.54375,15.7875,-20.587502
85.67251461988303,2.930125,-0.313225,0.8234875,9.199051,0.83805007,0.78405005,-27.54375,15.7875,-20.587502
85.74561403508771,2.9896624,-0.4389,1.3204125,11.1,-2.079,0.44400004,-27.656252,9.0,-22.800001
85.81871345029239,3.3738375,0.324225,0.23815,11.1,-2.079,0.44400004,-27.656252,9.0,-22.800001
85.89181286549707,3.4335124,0.306075,1.1246125,7.8619504,-1.5109501,2.8600502,-28.143751,1.7437501,-23.212502
85.96491228070175,3.8985374,0.5786,0.491425,7.8619504,-1.5109501,2.8600502,-28.143751,1.7437501,-23.212502
86.03801169590643,3.4643126,0.85305,0.451,9.781051,-1.14705,5.0610003,-28.687502,-5.2875004,-20.5125
86.1111111111111,3.0864625,0.4338125,0.34347498,9.781051,-1.14705,5.0610003,-28.687502,-5.2875004,-20.5125
86.18421052631578,3.0864625,0.4338125,0.34347498,10.2310505,-2.32095,4.6849504,-28.687502,-5.2875004,-20.5125
