timestamp,gyro_x,gyro_y,gyro_z,acc_x,acc_y,acc_z,mag_x,mag_y,mag_z
0.0,-0.1375,-0.1788875,0.171325,9.856951,-1.4770501,-2.23305,7.9125004,-22.85625,-34.85625
0.06430868167202572,0.2424125,-0.173525,-0.0754875,9.357,-1.4080501,-1.90005,7.9125004,-22.85625,-34.85625
0.12861736334405144,0.2424125,-0.173525,-0.0754875,9.225,-1.3069501,-1.8190501,7.9125004,-22.85625,-34.85625
0.19292604501607716,0.1945625,0.070125,-0.1522125,9.11505,-2.3400002,-1.6009501,7.9125004,-22.85625,-34.85625
0.2572347266881029,0.1945625,0.070125,-0.1522125,9.156,-2.0640001,-1.5649501,-25.312502,36.0,6.7125
0.3215434083601286,-0.1832875,0.21065,-0.1915375,9.505051,-1.8919501,-1.9069501,-25.312502,36.0,6.7125
0.3858520900321543,-0.062975,0.3298625,-0.19373749,9.982051,-1.6810501,-0.74295,-25.312502,36.0,6.7125
0.45016077170418,-0.062975,0.3298625,-0.19373749,10.066051,-1.7670001,-0.55605,-25.312502,36.0,6.7125
0.5144694533762058,0.0050875,0.2468125,-0.336325,10.00605,-1.2240001,-0.432,-25.800001,35.7,6.4125004
0.5787781350482315,0.0050875,0.2468125,-0.336325,10.854,-0.24900001,-1.764,-25.800001,35.7,6.4125004
0.6430868167202572,-0.064075,0.1967625,-0.2671625,11.14095,0.87105006,-1.0380001,-25.800001,35.7,6.4125004
0.7073954983922829,0.180675,-0.1310375,0.0319,9.618,-0.66795003,-0.67095006,-25.800001,35.7,6.4125004
0.7717041800643086,0.180675,-0.1310375,0.0319,8.911051,-1.13505,-1.3440001,-26.400002,35.2125,6.1875005
0.8360128617363344,0.131725,-0.18205,-0.202125,9.982051,-1.197,-1.40205,-26.400002,35.2125,6.1875005
0.90032154340836,0.1552375,0.1830125,-0.08305,10.35795,-1.62405,-0.717,-26.400002,35.2125,6.1875005
0.9646302250803858,0.1126125,0.006325,-0.16499999,9.964951,-1.485,-1.0669501,-27.187502,34.55625,5.8875003
1.0289389067524115,0.1126125,0.006325,-0.16499999,10.2640505,-0.61305004,-1.00395,-27.187502,34.55625,5.8875003
1.0932475884244373,-0.2800875,-0.109725,0.0213125,9.397051,-0.87405,-1.42095,-27.187502,34.55625,5.8875003
1.157556270096463,-0.552475,-0.125675,0.0543125,9.472051,-0.57495004,-1.34895,-27.187502,34.55625,5.8875003
1.2218649517684887,-0.552475,-0.125675,0.0543125,9.655951,0.26295,-1.9189501,-28.0125,34.0125,5.8875003
1.2861736334405145,-0.521675,0.1073875,-0.0702625,9.29895,0.10695001,-1.62705,-28.0125,34.0125,5.8875003
1.35048231511254,-0.4024625,0.2446125,-0.007425,9.13605,-0.15105,-1.062,-28.0125,34.0125,5.8875003
1.4147909967845658,-0.4024625,0.2446125,-0.007425,9.076051,-0.67005,-1.0570501,-28.0125,34.0125,5.8875003
1.4790996784565915,-0.4035625,0.4659875,-0.0202125,9.89295,-0.51900005,-0.95400006,-28.9125,33.1875,5.7562504
1.5434083601286173,-0.4035625,0.4659875,-0.0202125,10.405951,0.018,-0.10905001,-28.9125,33.1875,5.7562504
1.607717041800643,-0.4024625,0.5735125,-0.221375,10.54905,0.38205,0.09405001,-28.9125,33.1875,5.7562504
1.6720257234726688,-0.4332625,0.2690875,-0.074525,10.630951,0.20805001,0.64695,-28.9125,33.1875,5.7562504
1.7363344051446945,-0.4332625,0.2690875,-0.074525,9.903001,0.411,-0.08895,-29.8875,32.34375,5.8875003
1.80064308681672,-0.4013625,-0.012925,0.0149875,10.137,0.07305,0.41295,-29.8875,32.34375,5.8875003
1.8649517684887458,-0.4013625,-0.012925,0.0149875,9.903001,0.17400001,-0.279,-29.8875,32.34375,5.8875003
1.9292604501607715,-0.3268375,0.0020625,-0.0914375,10.11795,0.37305,0.35700002,-29.8875,32.34375,5.8875003
1.9935691318327973,-0.3119875,-0.0639375,0.008525,10.06995,0.54300004,-0.41295,-29.8875,32.34375,5.8875003
2.057877813504823,-0.3119875,-0.0639375,0.008525,9.627001,-0.096,0.28305,-30.956251,31.500002,6.3
2.1221864951768485,-0.0820875,-0.0064625,0.204325,9.41895,-0.47400004,-0.171,-30.956251,31.500002,6.3
2.1864951768488745,-0.0820875,-0.0064625,0.204325,10.312051,-0.615,0.12000001,-30.956251,31.500002,6.3
2.2508038585209,0.053075,-0.0224125,0.1288375,10.52805,-0.70395005,0.01305,-30.956251,31.500002,6.3
2.315112540192926,-0.012925,0.07755,0.0319,10.236,-0.51900005,-0.11295001,-31.687502,30.7875,6.7125
2.3794212218649515,-0.144925,-0.0639375,-0.0361625,9.831,-0.24195,-0.32205,-31.687502,30.7875,6.7125
2.4437299035369775,-0.144925,-0.0639375,-0.0361625,9.318001,0.03795,-0.26205,-31.687502,30.7875,6.7125
2.508038585209003,-0.28215,-0.0895125,-0.123475,9.77595,0.483,0.01305,-32.34375,30.187502,7.3125005
2.572347266881029,-0.440825,0.0680625,-0.172425,10.31505,0.47100002,0.85995007,-32.34375,30.187502,7.3125005
2.6366559485530545,-0.440825,0.0680625,-0.172425,9.426001,0.42795002,0.49395,-32.34375,30.187502,7.3125005
2.70096463022508,-0.44825,-0.0033,-0.0851125,10.221001,0.31995,1.095,-32.34375,30.187502,7.3125005
2.765273311897106,-0.44825,-0.0033,-0.0851125,10.69305,0.33,0.91995007,-32.8125,29.5125,8.45625
2.8295819935691315,-0.42061248,0.1552375,-0.040425,9.726001,-0.15105,1.16205,-32.8125,29.5125,8.45625
2.8938906752411575,-0.4024625,0.2223375,-0.0765875,9.462001,-0.31395,1.16205,-32.8125,29.5125,8.45625
2.958199356913183,-0.4024625,0.2223375,-0.0765875,8.911051,-0.26595002,0.84405005,-32.8125,29.5125,8.45625
3.022508038585209,-0.3524125,-0.0138875,0.0191125,10.899,-0.68205005,1.2600001,-33.0,29.1,9.543751
3.0868167202572345,-0.22893749,-0.158675,0.157575,10.10595,-0.65805006,0.975,-33.0,29.1,9.543751
3.15112540192926,-0.22893749,-0.158675,0.157575,9.11505,-0.83595,0.30195,-33.0,29.1,9.543751
3.215434083601286,-0.0182875,0.0094875,0.1596375,8.45895,-0.85695004,-0.47700003,-33.0,29.1,9.543751
3.2797427652733115,0.1307625,-0.18315,0.1288375,9.438001,-1.0680001,-0.30495003,-33.112503,28.687502,10.3125
3.3440514469453375,0.1307625,-0.18315,0.1288375,10.023001,-0.9979501,-0.36,-33.112503,28.687502,10.3125
3.408360128617363,0.24035,-0.31405,0.0543125,9.70905,-0.9289501,-0.40800002,-33.112503,28.687502,10.3125
3.472668810289389,0.24035,-0.31405,0.0543125,9.8880005,-0.735,-0.54705,-33.112503,28.687502,10.3125
3.5369774919614145,0.3106125,0.1329625,0.089375,9.8880005,-0.735,-0.54705,-32.8875,28.743752,11.400001
3.60128617363344,0.216975,0.023375,0.1681625,9.8880005,-0.735,-0.54705,-32.8875,28.743752,11.400001
3.665594855305466,0.216975,0.023375,0.1681625,10.05105,-0.57705003,-0.70695,-32.8875,28.743752,11.400001
3.7299035369774916,0.2371875,0.0499125,0.2512125,11.380051,-0.37305,-0.84405005,-32.8875,28.743752,11.400001
3.7942122186495175,0.2371875,0.0499125,0.2512125,10.54905,0.32700002,-0.87000006,-32.8125,28.987501,11.8125
3.858520900321543,0.2360875,0.006325,-0.0510125,10.54905,0.32700002,-0.87000006,-32.8125,28.987501,11.8125
3.922829581993569,0.049775,0.071225,-0.2096875,10.51305,0.39195,-0.291,-32.8125,28.987501,11.8125
3.9871382636655945,0.049775,0.071225,-0.2096875,8.00805,0.60495,-0.216,-32.8125,28.987501,11.8125
4.05144694533762,0.003025,-0.042625,0.066,8.00805,0.60495,-0.216,-32.643753,29.1,11.887501
4.115755627009646,0.0232375,-0.1373625,-0.121275,10.65705,0.0,-0.02505,-32.643753,29.1,11.887501
4.180064308681672,0.0232375,-0.1373625,-0.121275,10.52505,0.16695,-0.65205,-32.643753,29.1,11.887501
4.244372990353697,-0.0672375,0.0892375,-0.22453749,10.52505,0.16695,-0.65205,-32.643753,29.1,11.887501
4.308681672025723,-0.3183125,-0.1447875,-0.186175,9.46695,0.86895007,-1.146,-32.5875,29.343752,12.0
4.372990353697749,-0.3183125,-0.1447875,-0.186175,9.46695,0.86895007,-1.146,-32.5875,29.343752,12.0
4.437299035369775,-0.522775,-0.3172125,-0.1596375,9.208051,0.50895,-1.4980501,-32.5875,29.343752,12.0
4.5016077170418,-0.4833125,-0.21615,0.0,9.64395,-0.30900002,-1.182,-32.5875,29.343752,12.0
4.565916398713826,-0.4833125,-0.21615,0.0,8.52105,0.246,-0.93000007,-32.5125,29.343752,12.6
4.630225080385852,-0.3333,0.0658625,-0.1266375,8.52105,0.246,-0.93000007,-32.5125,29.343752,12.6
4.694533762057877,-0.522775,0.0765875,-0.2618,9.541051,1.7310001,0.441,-32.5125,29.343752,12.6
4.758842443729903,-0.522775,0.0765875,-0.2618,9.970051,0.61695004,-0.24300002,-32.5125,29.343752,12.6
4.823151125401929,-0.553575,0.626725,-0.056375,9.970051,0.61695004,-0.24300002,-32.8875,29.343752,12.7875
4.887459807073955,-0.2704625,0.2809125,0.400125,10.212001,-0.45000002,-1.31805,-32.8875,29.343752,12.7875
4.95176848874598,-0.2704625,0.2809125,0.400125,10.47795,-0.26295,-1.0519501,-32.8875,29.343752,12.7875
5.016077170418006,0.086075,0.1744875,0.0372625,10.47795,-0.26295,-1.0519501,-33.112503,29.212502,12.843751
5.080385852090032,0.0061875,0.1659625,-0.0341,9.318001,0.56895,-0.91605,-33.112503,29.212502,12.843751
5.144694533762058,0.0061875,0.1659625,-0.0341,9.48795,0.11205,-1.0500001,-33.112503,29.212502,12.843751
5.209003215434083,-0.1555125,-0.1065625,0.058575,9.649051,-0.56295,-0.846,-33.112503,29.212502,12.843751
5.273311897106109,0.049775,0.1414875,0.08195,9.649051,-0.56295,-0.846,-33.487503,28.85625,12.900001
5.337620578778135,0.2019875,0.152075,0.0765875,10.34595,-0.63000005,-0.063,-33.487503,28.85625,12.900001
5.40192926045016,0.2019875,0.152075,0.0765875,8.787001,-0.45705003,0.20895001,-33.487503,28.85625,12.900001
5.466237942122186,0.20515,0.0840125,0.1340625,11.800051,-0.90495,0.94395006,-34.0125,28.500002,12.900001
5.530546623794212,0.295625,-0.0320375,0.089375,11.800051,-0.90495,0.94395006,-34.0125,28.500002,12.900001
5.594855305466238,0.3999875,0.2776125,0.19373749,9.946051,-0.09105001,1.3110001,-34.0125,28.500002,12.900001
5.659163987138263,0.3999875,0.2776125,0.19373749,11.028001,0.165,1.368,-34.0125,28.500002,12.900001
5.723472668810289,0.1189375,0.19139999,0.073425,11.028001,0.165,1.368,-34.256252,28.25625,12.7875
5.787781350482315,0.14025,0.284075,0.08305,8.32905,0.43800002,1.1329501,-34.256252,28.25625,12.7875
5.85209003215434,0.14025,0.284075,0.08305,10.37895,-0.35895002,1.19805,-34.256252,28.25625,12.7875
5.916398713826366,0.2861375,-0.0820875,0.140525,10.37895,-0.35895002,1.19805,-34.256252,28.25625,12.7875
5.980707395498392,0.37015,0.2404875,0.009625,10.1970005,-0.36900002,0.82005006,-34.2,28.2,12.356251
6.045016077170418,0.37015,0.2404875,0.009625,8.394,-0.09795,0.513,-34.2,28.2,12.356251
6.109324758842443,0.0455125,-0.0246125,-0.0180125,8.394,-0.09795,0.513,-34.2,28.2,12.356251
6.173633440514469,-0.2778875,-0.3246375,0.0341,10.188001,0.51705,1.2030001,-34.800003,27.7875,12.4875
6.237942122186495,-0.2778875,-0.3246375,0.0341,10.188001,0.51705,1.2030001,-34.800003,27.7875,12.4875
6.30225080385852,-0.44715,-0.0352,-0.08195,12.525001,-0.28695002,0.01305,-34.800003,27.7875,12.4875
6.366559485530546,-0.4301,-0.11935,0.0680625,8.88195,-0.24900001,1.7200501,-34.800003,27.7875,12.4875
6.430868167202572,-0.4301,-0.11935,0.0680625,8.88195,-0.24900001,1.7200501,-34.85625,27.54375,12.243751
6.495176848874598,-0.22893749,0.1159125,-0.156475,9.5119505,-0.87405,2.7930002,-34.85625,27.54375,12.243751
6.559485530546623,-0.0609125,-0.092675,-0.0510125,9.622951,-0.36600003,3.1360502,-34.85625,27.54375,12.243751
6.623794212218649,-0.0609125,-0.092675,-0.0510125,9.622951,-0.36600003,3.1360502,-34.85625,27.54375,12.243751
6.688102893890675,0.0573375,0.01485,-0.039325,9.817051,-0.52905005,3.4639502,-34.74375,27.35625,11.700001
6.7524115755627,0.016775,0.1255375,-0.0957,9.823951,-0.87600005,3.588,-34.74375,27.35625,11.700001
6.816720257234726,0.016775,0.1255375,-0.0957,9.823951,-0.87600005,3.588,-34.74375,27.35625,11.700001
6.881028938906752,0.020075,0.1936,-0.0053625,10.159051,-0.606,3.864,-34.74375,27.35625,11.700001
6.945337620578778,0.0583,0.2234375,-0.0127875,10.159051,-0.606,3.864,-34.912502,27.243752,11.34375
7.009646302250803,0.0583,0.2234375,-0.0127875,9.817051,-0.46005002,3.6360002,-34.912502,27.243752,11.34375
7.073954983922829,-0.0353375,0.14355,-0.0265375,9.735001,-0.771,3.4279501,-34.912502,27.243752,11.34375
7.138263665594855,-0.0683375,-0.0787875,0.0691625,9.735001,-0.771,3.4279501,-34.912502,27.243752,11.34375
7.20257234726688,-0.0683375,-0.0787875,0.0691625,9.462001,-0.93105006,2.5470002,-34.800003,27.35625,11.1
7.266881028938906,0.0391875,-0.2107875,0.1032625,10.342951,-0.45195,1.4470501,-34.800003,27.35625,11.1
7.331189710610932,0.148775,-0.2864125,0.0064625,9.52005,-0.37605003,0.57795,-34.800003,27.35625,11.1
7.395498392282958,0.148775,-0.2864125,0.0064625,9.52005,-0.37605003,0.57795,-35.15625,27.4125,10.8
7.459807073954983,0.1445125,-0.2299,-0.1192125,10.552051,-0.09105001,-0.93705004,-35.15625,27.4125,10.8
7.524115755627009,0.0902,-0.2693625,0.0468875,10.2619505,0.72495,-0.279,-35.15625,27.4125,10.8
7.588424437299035,0.0902,-0.2693625,0.0468875,10.2619505,0.72495,-0.279,-35.15625,27.4125,10.8
7.652733118971061,0.117975,-0.354475,-0.0999625,6.62895,0.95505005,-0.27600002,-35.4,27.112501,10.9875
7.717041800643086,0.13915,-0.0628375,-0.15853749,10.5730505,0.37995002,0.49905002,-35.4,27.112501,10.9875
7.781350482315112,0.13915,-0.0628375,-0.15853749,10.5730505,0.37995002,0.49905002,-35.4,27.112501,10.9875
7.845659163987138,-0.176825,-0.273625,-0.156475,10.281,0.531,0.45600003,-35.4,27.112501,10.9875
7.909967845659163,-0.1045,0.5000875,-0.009625,8.370001,0.93600005,0.432,-35.643753,26.7,11.64375
7.974276527331189,-0.1045,0.5000875,-0.009625,11.016001,0.94995004,0.99195004,-35.643753,26.7,11.64375
8.038585209003214,-0.208725,0.0840125,0.041525,11.016001,0.94995004,0.99195004,-35.643753,26.7,11.64375
8.10289389067524,-0.3843125,-0.058575,-0.138325,10.236,0.054,0.02205,-35.456253,26.75625,12.056251
8.167202572347266,-0.374825,0.215875,0.0968,10.078051,-1.72695,-0.01305,-35.456253,26.75625,12.056251
8.231511254019292,-0.374825,0.215875,0.0968,10.078051,-1.72695,-0.01305,-35.456253,26.75625,12.056251
8.295819935691318,-0.23539999,0.0754875,0.074525,8.976001,0.91905004,0.92700005,-35.456253,26.75625,12.056251
8.360128617363344,-0.2470875,-0.0138875,-0.0851125,8.976001,0.91905004,0.92700005,-35.7,26.587502,12.356251
8.42443729903537,-0.2470875,-0.0138875,-0.0851125,10.67895,1.5820501,1.31805,-35.7,26.587502,12.356251
8.488745980707394,-0.7057875,-0.0022,-0.31075,9.45195,0.46095002,0.37695003,-35.7,26.587502,12.356251
8.55305466237942,-0.4588375,0.249975,-0.1266375,9.45195,0.46095002,0.37695003,-35.7,26.587502,12.356251
8.617363344051446,-0.4588375,0.249975,-0.1266375,10.707001,-1.3050001,0.30705002,-35.8875,26.5125,12.900001
8.681672025723472,0.1381875,0.20955,0.334125,10.255051,-1.5160501,-0.07995001,-35.8875,26.5125,12.900001
8.745980707395498,0.1381875,0.20955,0.334125,10.255051,-1.5160501,-0.07995001,-35.8875,26.5125,12.900001
8.810289389067524,0.641575,0.17765,0.1755875,9.048,-0.68205005,-0.28095,-35.8875,26.5125,12.900001
8.87459807073955,0.53185,-0.18425,0.0435875,9.048,-0.68205005,-0.28095,-35.8875,26.5125,13.012501
8.938906752411574,0.53185,-0.18425,0.0435875,10.156951,0.354,-0.09195001,-35.8875,26.5125,13.012501
9.0032154340836,0.1892,-0.320375,-0.040425,10.98495,0.37305,0.31005,-35.8875,26.5125,13.012501
9.067524115755626,-0.02145,-0.15125,-0.219175,8.953951,0.49500003,0.61605,-35.8875,26.5125,13.012501
9.131832797427652,-0.02145,-0.15125,-0.219175,8.953951,0.49500003,0.61605,-36.05625,26.7,13.44375
9.196141479099678,-0.061875,0.036025,-0.1106875,11.27805,0.69105005,0.726,-36.05625,26.7,13.44375
9.260450160771704,-0.179025,-0.1395625,0.08305,8.526,0.60300004,0.73305005,-36.05625,26.7,13.44375
9.32475884244373,-0.179025,-0.1395625,0.08305,8.526,0.60300004,0.73305005,-36.05625,26.7,13.44375
9.389067524115754,-0.095975,0.185075,-0.0265375,10.794001,0.06405,1.011,-35.756252,26.643751,13.556251
9.45337620578778,-0.0917125,-0.16293749,0.1958,10.114051,-0.12000001,0.89205,-35.756252,26.643751,13.556251
9.517684887459806,-0.0917125,-0.16293749,0.1958,9.967051,-0.43095002,1.03005,-35.756252,26.643751,13.556251
9.581993569131832,0.0859375,0.1563375,0.154275,9.558001,-0.21795002,0.86505,-35.5875,26.75625,13.556251
9.646302250803858,0.1445125,0.0616,0.040425,9.71805,0.078,1.023,-35.5875,26.75625,13.556251
9.710610932475884,0.1445125,0.0616,0.040425,10.309951,-0.14595,1.1550001,-35.5875,26.75625,13.556251
9.77491961414791,0.130625,-0.0053625,0.074525,10.096951,-0.27,0.93000007,-35.5875,26.75625,13.556251
9.839228295819934,0.130625,-0.0053625,0.074525,10.011001,-0.19095,0.96105003,-35.5875,27.056252,13.687501
9.90353697749196,0.0402875,-0.0490875,-0.066,9.934051,0.02295,0.846,-35.5875,27.056252,13.687501
9.967845659163986,0.04235,0.04565,0.0298375,9.879001,0.11400001,0.82500005,-35.5875,27.056252,13.687501
10.032154340836012,0.04235,0.04565,0.0298375,9.673051,0.07305,0.80100006,-35.5875,27.056252,13.687501
10.096463022508038,0.081675,0.0435875,0.0213125,9.71595,0.01395,0.813,-35.5875,26.8875,13.44375
10.160771704180064,0.0306625,-0.0309375,-0.0191125,9.8880005,0.06900001,0.89400005,-35.5875,26.8875,13.44375
10.22508038585209,0.0306625,-0.0309375,-0.0191125,10.003051,0.06405,1.0180501,-35.5875,26.8875,13.44375
10.289389067524116,-0.031075,-0.0341,-0.04895,9.86205,-0.021,0.975,-35.5875,26.8875,13.44375
10.35369774919614,-0.031075,-0.0341,-0.04895,10.104,-0.02595,1.0180501,-35.4,26.812502,13.200001
10.418006430868166,-0.0438625,-0.010725,-0.0341,10.129951,-0.036,0.85095006,-35.4,26.812502,13.200001
10.482315112540192,-0.048125,0.0658625,-0.0308,9.868951,0.03,0.70695,-35.4,26.812502,13.200001
10.546623794212218,-0.048125,0.0658625,-0.0308,10.080001,0.16005,0.67395,-35.4,26.812502,13.200001
10.610932475884244,-0.0374,0.0627,0.0031625,10.18305,0.17400001,0.69795,-35.100002,27.243752,13.087501
10.67524115755627,-0.0374,0.0627,0.0031625,10.05795,0.22905001,0.59895,-35.100002,27.243752,13.087501
10.739549839228296,-0.014025,0.0584375,-0.0042625,9.936001,0.19605,0.47700003,-35.100002,27.243752,13.087501
10.80385852090032,-0.031075,-0.0457875,-0.006325,9.876,0.15,0.453,-35.100002,27.243752,13.087501
10.868167202572346,-0.0279125,-0.1001,-0.0276375,9.547951,0.10005,0.38595003,-34.912502,27.4125,13.200001
10.932475884244372,-0.0279125,-0.1001,-0.0276375,9.850051,0.03795,0.43395,-34.912502,27.4125,13.200001
10.996784565916398,-0.0364375,-0.0554125,-0.0308,10.05405,0.08295,0.492,-34.912502,27.4125,13.200001
11.061093247588424,-0.0364375,-0.0554125,-0.0308,9.927,0.057,0.60405004,-34.912502,27.4125,13.200001
11.12540192926045,-0.0416625,-0.0468875,-0.0105875,9.726001,0.042,0.54405004,-34.912502,27.187502,12.95625
11.189710610932476,-0.016225,-0.11605,-0.0053625,9.59595,0.06405,0.549,-34.912502,27.187502,12.95625
11.2540192926045,-0.016225,-0.11605,-0.0053625,10.34805,-0.20295002,0.58005005,-34.912502,27.187502,12.95625
11.318327974276526,0.0050875,-0.0958375,-0.039325,10.16895,0.03,0.58500004,-34.912502,27.187502,12.95625
11.382636655948552,0.0050875,-0.0958375,-0.039325,10.318951,0.033,0.65400004,-34.912502,27.243752,13.14375
11.446945337620578,-0.014025,0.0169125,-0.0319,9.91005,-0.12000001,0.59505004,-34.912502,27.243752,13.14375
11.511254019292604,-0.061875,-0.0022,-0.033,9.41205,-0.246,0.51105005,-34.912502,27.243752,13.14375
11.57556270096463,-0.061875,-0.0022,-0.033,9.924001,-0.28500003,0.82905006,-34.912502,27.243752,13.14375
11.639871382636656,-0.110825,0.0094875,0.0127875,9.498,0.02805,0.85605,-34.912502,27.243752,13.14375
11.70418006430868,-0.110825,0.0094875,0.0127875,9.678,0.14505,1.00695,-34.85625,27.000002,13.012501
11.768488745980706,-0.11935,0.120175,0.08305,10.10595,-0.021,1.24395,-34.85625,27.000002,13.012501
11.832797427652732,-0.12265,0.0638,0.075625,10.317,0.01395,1.18095,-34.85625,27.000002,13.012501
11.897106109324758,-0.12265,0.0638,0.075625,10.044001,0.08505,1.02795,-34.912502,27.000002,13.25625
11.961414790996784,-0.0416625,-0.025575,0.023375,9.703951,-0.23895001,0.93000007,-34.912502,27.000002,13.25625
12.02572347266881,0.050875,-0.1192125,0.009625,9.48795,-0.47895002,0.822,-34.912502,27.000002,13.25625
12.090032154340836,0.050875,-0.1192125,0.009625,10.068001,-0.615,0.96795005,-34.912502,27.000002,13.25625
12.15434083601286,0.0583,0.0424875,0.009625,10.128,-0.666,0.89400005,-34.912502,27.000002,13.25625
12.218649517684886,0.0583,0.0424875,0.009625,10.189951,-0.78495,1.00695,-35.100002,26.94375,13.687501
12.282958199356912,0.1126125,0.1329625,0.0617375,9.77595,-0.60795003,0.93195003,-35.100002,26.94375,13.687501
12.347266881028938,0.180675,0.119075,0.066,9.474,-0.58695,0.99195004,-35.100002,26.94375,13.687501
12.411575562700964,0.180675,0.119075,0.066,10.04205,-1.2400501,1.2360001,-35.100002,26.94375,13.687501
12.47588424437299,0.20515,-0.0235125,0.1106875,10.116,-0.78105,1.3609501,-34.987503,27.300001,13.8
12.540192926045016,0.20515,0.0191125,0.1777875,9.793051,-0.78105,1.5979501,-34.987503,27.300001,13.8
12.60450160771704,0.20515,0.0191125,0.1777875,9.43095,0.60300004,1.84695,-34.987503,27.300001,13.8
12.668810289389066,0.1508375,0.183975,0.17875,11.112,-0.22995001,2.391,-34.987503,27.300001,13.8
12.733118971061092,0.1115125,0.104225,0.1170125,11.007001,-0.63195,2.25,-34.85625,27.54375,13.500001
12.797427652733118,0.1115125,0.104225,0.1170125,11.004001,-0.36600003,2.2020001,-34.85625,27.54375,13.500001
12.861736334405144,0.0594,0.0658625,0.023375,10.71,-0.16005,1.61205,-34.85625,27.54375,13.500001
12.92604501607717,0.0594,0.0658625,0.023375,10.891951,0.10905001,1.38495,-34.85625,27.54375,13.500001
12.990353697749196,0.036025,0.2244,-0.1309,3.5080502,1.1179501,-2.2039502,-34.800003,27.956251,13.14375
13.05466237942122,-0.1247125,0.269225,-0.1340625,10.791,-1.0180501,-0.29805002,-34.800003,27.956251,13.14375
13.118971061093246,-0.1247125,0.269225,-0.1340625,11.347051,-0.165,-0.43905002,-34.800003,27.956251,13.14375
13.183279742765272,-0.1725625,0.219175,-0.0628375,10.662001,-0.83805007,-0.70005006,-34.800003,27.956251,13.14375
13.247588424437298,-0.1725625,0.219175,-0.0628375,9.8880005,-0.20295002,-0.67395,-34.55625,28.2,12.95625
13.311897106109324,-0.0757625,-0.207625,-0.009625,9.783,-0.38805002,-0.95400006,-34.55625,28.2,12.95625
13.37620578778135,-0.111925,-1.03345,-0.024475,9.703951,-0.30405003,-1.047,-34.55625,28.2,12.95625
13.440514469453376,-0.111925,-1.03345,-0.024475,10.221001,-0.24405001,-1.143,-34.55625,28.2,12.95625
13.5048231511254,0.01045,-1.6847875,-0.0787875,9.4810505,-0.08595,-0.95595,-34.256252,28.44375,13.556251
13.569131832797426,0.01045,-1.6847875,-0.0787875,9.486,0.10005,-0.86805004,-34.256252,28.44375,13.556251
13.633440514469452,0.3477375,0.2074875,-0.0276375,10.36995,0.25605002,-0.83895004,-34.256252,28.44375,13.556251
13.697749196141478,0.1222375,-0.1618375,-0.0020625,10.36005,0.17595,-0.94200003,-34.256252,28.44375,13.556251
13.762057877813504,0.1222375,-0.1618375,-0.0020625,10.033951,0.25095,-0.95895004,-34.0875,28.743752,14.212501
13.82636655948553,-0.02255,-0.2842125,-0.0020625,10.033951,0.25095,-0.95895004,-34.0875,28.743752,14.212501
13.890675241157556,-0.0066,-0.2204125,-0.023375,9.92895,-0.01395,-1.3300501,-34.0875,28.743752,14.212501
13.95498392282958,-0.0066,-0.2204125,-0.023375,9.92895,-0.01395,-1.3300501,-34.0875,28.743752,14.212501
14.019292604501606,-0.1013375,-0.0617375,-0.236225,9.687,0.042,-1.335,-33.9,28.85625,14.887501
14.083601286173632,-0.1013375,-0.0617375,-0.236225,9.850051,-0.25605002,-1.4620501,-33.9,28.85625,14.887501
14.147909967845658,-0.0501875,0.040425,-0.0202125,9.850051,-0.25605002,-1.4620501,-33.9,28.85625,14.887501
14.212218649517684,-0.094875,-0.12773749,-0.025575,9.44505,0.51195,-1.5499501,-33.9,28.85625,14.887501
14.27652733118971,-0.094875,-0.12773749,-0.025575,9.44505,0.51195,-1.5499501,-33.412502,29.04375,15.3
14.340836012861736,-0.0088,-0.1310375,-0.08305,9.603001,0.66,-1.488,-33.412502,29.04375,15.3
14.40514469453376,-0.0088,-0.1310375,-0.08305,9.4810505,0.57600003,-1.488,-33.412502,29.04375,15.3
14.469453376205786,-0.0661375,-0.123475,-0.0341,9.093,1.09095,-1.30095,-33.412502,29.04375,15.3
14.533762057877812,-0.0449625,-0.1373625,-0.057475,9.093,1.09095,-1.30095,-33.35625,28.743752,15.95625
14.598070739549838,-0.0449625,-0.1373625,-0.057475,9.31095,1.28505,-0.98295003,-33.35625,28.743752,15.95625
14.662379421221864,-0.1375,-0.08525,-0.0765875,9.31095,1.28505,-0.98295003,-33.35625,28.743752,15.95625
14.72668810289389,-0.047025,0.1062875,-0.1670625,10.87005,-0.70605004,-0.873,-33.35625,28.743752,15.95625
14.790996784565916,-0.047025,0.1062875,-0.1670625,11.542951,0.24405001,-0.11100001,-33.1875,28.2,17.1
14.855305466237942,-0.0023375,0.1276,-0.235125,7.6729503,1.2349501,-4.269,-33.1875,28.2,17.1
14.919614147909966,-0.0768625,0.07865,-0.14905,7.6729503,1.2349501,-4.269,-33.1875,28.2,17.1
14.983922829581992,-0.0768625,0.07865,-0.14905,10.387051,0.76995003,-1.20105,-33.1875,28.2,17.1
15.048231511254018,-0.0534875,0.186175,0.0968,10.387051,0.76995003,-1.20105,-33.0,27.487501,18.056252
15.112540192926044,0.07425,0.2926,0.2734875,9.397051,-0.093,-1.0690501,-33.0,27.487501,18.056252
15.17684887459807,-0.1513875,0.1340625,0.0276375,9.397051,-0.093,-1.0690501,-33.0,27.487501,18.056252
15.241157556270096,-0.1513875,0.1340625,0.0276375,10.248,0.078,-1.14795,-33.0,27.487501,18.056252
15.305466237942122,-0.2385625,-0.7492375,-0.1266375,10.149,-0.68700004,-1.00395,-32.5125,26.94375,18.956251
15.369774919614146,-0.2385625,-0.7492375,-0.1266375,10.149,-0.68700004,-1.00395,-32.5125,26.94375,18.956251
15.434083601286172,0.2222,0.08085,0.075625,9.87405,-1.02195,-0.94695,-32.5125,26.94375,18.956251
15.498392282958198,0.326425,0.37661248,0.170225,9.87405,-1.02195,-0.94695,-32.5125,26.94375,18.956251
15.562700964630224,0.326425,0.37661248,0.170225,9.346951,-0.45000002,-1.0830001,-32.5125,26.5125,18.84375
15.62700964630225,-0.02145,-0.1299375,0.105325,10.308001,-0.01395,0.11805001,-32.5125,26.5125,18.84375
15.691318327974276,0.032725,0.1617,0.0691625,10.308001,-0.01395,0.11805001,-32.5125,26.5125,18.84375
15.755627009646302,0.24447499,0.04675,0.0851125,10.18305,1.7020501,-0.19500001,-32.4,26.343752,18.956251
15.819935691318326,0.24447499,0.04675,0.0851125,10.353001,-1.0870501,-0.26895002,-32.4,26.343752,18.956251
15.884244372990352,0.2605625,-0.027775,0.0532125,9.13395,-0.52395004,-0.504,-32.4,26.343752,18.956251
15.948553054662378,0.163625,0.08085,-0.11275,9.13395,-0.52395004,-0.504,-32.4,26.343752,18.956251
16.012861736334404,0.163625,0.08085,-0.11275,10.276051,0.42795002,-0.10905001,-32.287502,26.456251,18.54375
16.07717041800643,0.07315,0.2063875,-0.11385,10.473001,-0.13095,0.50100005,-32.287502,26.456251,18.54375
16.141479099678456,-0.2960375,0.199925,-0.0361625,10.473001,-0.13095,0.50100005,-32.287502,26.456251,18.54375
16.20578778135048,-0.2960375,0.199925,-0.0361625,10.173,-1.8580501,-0.45600003,-32.34375,26.400002,18.1875
16.270096463022508,0.0710875,0.105325,0.1255375,9.54405,1.0720501,0.62295,-32.34375,26.400002,18.1875
16.334405144694532,0.1445125,0.1233375,-0.0020625,11.598001,0.05895,1.143,-32.34375,26.400002,18.1875
16.39871382636656,0.1445125,0.1233375,-0.0020625,11.598001,0.05895,1.143,-32.34375,26.400002,18.1875
16.463022508038584,-0.098175,0.3873375,0.05005,10.125001,0.28905,0.19695,-32.4,26.7,17.5125
16.52733118971061,-0.0055,0.27981248,0.1522125,10.1970005,-0.69900006,-0.79800004,-32.4,26.7,17.5125
16.591639871382636,-0.0055,0.27981248,0.1522125,10.1970005,-0.69900006,-0.79800004,-32.4,26.7,17.5125
16.65594855305466,0.0625625,0.0818125,0.0936375,9.508051,-1.02495,-1.0309501,-32.4,26.7,17.5125
16.720257234726688,-0.5259375,0.04675,-0.04895,8.81805,0.40905002,-0.81000006,-32.643753,27.056252,16.743752
16.784565916398712,-0.176825,0.0584375,0.1255375,9.936001,0.62895006,-0.79095006,-32.643753,27.056252,16.743752
16.84887459807074,-0.176825,0.0584375,0.1255375,9.936001,0.62895006,-0.79095006,-32.643753,27.056252,16.743752
16.913183279742764,-0.045925,-0.4736875,0.137225,9.77295,0.69105005,-0.42495003,-32.7,27.712502,16.612501
16.97749196141479,0.328625,-0.3661625,0.041525,9.89595,1.5180001,-0.54405004,-32.7,27.712502,16.612501
17.041800643086816,0.328625,-0.3661625,0.041525,9.89595,1.5180001,-0.54405004,-32.7,27.712502,16.612501
17.10610932475884,0.360525,-0.2597375,-0.24365,10.569,0.09495001,-0.58995,-32.7,27.712502,16.612501
17.170418006430868,-0.1150875,-0.231,-0.2820125,9.48795,-1.212,-0.9799501,-32.8125,28.143751,16.3125
17.234726688102892,-0.210925,0.086075,-0.11275,9.48795,-1.212,-0.9799501,-32.8125,28.143751,16.3125
17.29903536977492,-0.210925,0.086075,-0.11275,10.04895,-0.555,-1.023,-32.8125,28.143751,16.3125
17.363344051446944,-0.0928125,0.0499125,-0.137225,10.04895,-0.555,-1.023,-32.8125,28.143751,16.3125
17.42765273311897,0.1945625,-0.012925,-0.2096875,10.24005,-0.95295006,-1.167,-33.05625,28.312502,16.25625
17.491961414790996,0.1945625,-0.012925,-0.2096875,8.590051,1.16805,-0.70305,-33.05625,28.312502,16.25625
17.55627009646302,0.5883625,-0.025575,0.008525,10.408051,0.804,0.264,-33.05625,28.312502,16.25625
17.620578778135048,0.5394125,-0.0033,-0.1574375,10.408051,0.804,0.264,-33.35625,28.312502,15.900001
17.684887459807072,0.5394125,-0.0033,-0.1574375,10.854,0.43500003,0.27405003,-33.35625,28.312502,15.900001
17.7491961414791,-0.0374,0.1318625,0.007425,8.490001,1.05495,-1.4620501,-33.35625,28.312502,15.900001
17.813504823151124,-0.45993748,0.1137125,-0.072325,8.490001,1.05495,-1.4620501,-33.35625,28.312502,15.900001
17.87781350482315,-0.45993748,0.1137125,-0.072325,10.557,0.351,-0.60405004,-33.600002,27.900002,15.95625
17.942122186495176,-1.03785,-0.074525,0.0352,10.102051,-0.48795003,-0.46305,-33.600002,27.900002,15.95625
18.0064308681672,-1.0527,0.2308625,0.34485,9.330001,-0.43095002,-0.41805002,-33.600002,27.900002,15.95625
18.070739549839228,-1.0527,0.2308625,0.34485,9.330001,-0.43095002,-0.41805002,-33.600002,27.900002,15.95625
18.135048231511252,-0.6716875,0.2957625,0.44907498,9.8209505,0.25800002,-0.39600003,-33.65625,27.6,16.3875
18.19935691318328,-0.831325,-0.126775,-0.383075,9.54405,0.41595003,-0.03705,-33.65625,27.6,16.3875
18.263665594855304,-0.15125,0.27445,0.1043625,9.54405,0.41595003,-0.03705,-33.65625,27.6,16.3875
18.32797427652733,-0.15125,0.27445,0.1043625,11.629951,0.62895006,0.48705003,-33.84375,27.187502,16.9125
18.392282958199356,0.1189375,0.14465,-0.0191125,9.69705,0.17205001,0.80505,-33.84375,27.187502,16.9125
18.45659163987138,0.15619999,-0.0682,-0.1340625,9.74205,0.057,-0.453,-33.84375,27.187502,16.9125
18.520900321543408,0.15619999,-0.0682,-0.1340625,9.74205,0.057,-0.453,-33.84375,27.187502,16.9125
18.585209003215432,0.1584,-0.0682,-0.0765875,9.237,-0.96495,-1.8780001,-33.84375,26.643751,17.587502
18.64951768488746,0.314875,-0.05005,-0.0628375,8.181001,0.246,-1.21695,-33.84375,26.643751,17.587502
18.713826366559484,0.314875,-0.05005,-0.0628375,8.181001,0.246,-1.21695,-33.84375,26.643751,17.587502
18.77813504823151,0.6021125,0.07755,0.0702625,10.068001,0.44700003,0.51105005,-33.84375,26.643751,17.587502
18.842443729903536,0.720225,-0.190575,-0.0649,10.273951,1.6570501,0.38895002,-34.143753,26.156252,17.456251
18.90675241157556,0.5787375,-0.1054625,-0.04675,10.35105,0.864,0.53205,-34.143753,26.156252,17.456251
18.971061093247588,0.5787375,-0.1054625,-0.04675,10.35105,0.864,0.53205,-34.143753,26.156252,17.456251
19.035369774919612,0.3744125,-0.2842125,0.1926375,10.023001,0.16695,0.53895,-34.612503,25.85625,17.456251
19.09967845659164,-0.3227125,0.071225,-0.0649,10.10595,0.73695004,0.91995007,-34.612503,25.85625,17.456251
19.163987138263664,-0.3227125,0.071225,-0.0649,10.10595,0.73695004,0.91995007,-34.612503,25.85625,17.456251
19.22829581993569,-0.54821247,0.3265625,0.3235375,10.545,0.92595005,0.80100006,-34.612503,25.85625,17.456251
19.292604501607716,-0.5663625,0.43725,0.2256375,12.98805,1.281,0.70005006,-34.6875,25.800001,17.34375
19.35691318327974,-0.3056625,0.27445,-0.0287375,12.98805,1.281,0.70005006,-34.6875,25.800001,17.34375
19.421221864951768,-0.3056625,0.27445,-0.0287375,9.429001,-1.0510501,0.16305001,-34.6875,25.800001,17.34375
19.485530546623792,-0.0576125,0.1467125,-0.0457875,9.225,-0.91200006,-0.23805001,-35.100002,25.500002,17.75625
19.54983922829582,-0.0715,0.0627,-0.033,9.226951,-0.16005,-0.83400005,-35.100002,25.500002,17.75625
19.614147909967844,-0.0715,0.0627,-0.033,9.226951,-0.16005,-0.83400005,-35.100002,25.500002,17.75625
19.67845659163987,-0.0374,0.0180125,-0.0925375,8.602051,0.648,-0.12795001,-35.100002,25.500002,17.75625
19.742765273311896,0.10725,-0.1225125,-0.041525,10.297951,0.61995006,1.5600001,-35.4,25.143751,17.400002
19.80707395498392,0.10725,-0.1225125,-0.041525,10.132951,0.45405003,1.11405,-35.4,25.143751,17.400002
19.871382636655948,0.3531,-0.192775,-0.0138875,9.699,-0.12900001,0.46995002,-35.4,25.143751,17.400002
19.935691318327972,0.1786125,-0.288475,-0.1489125,9.663,-0.036,0.15900001,-35.4,25.143751,17.400002
20.0,-0.2789875,-0.3416875,-0.14685,11.074051,-0.18900001,0.18,-35.7,24.900002,17.34375
20.064308681672024,-0.2789875,-0.3416875,-0.14685,10.408051,0.14805001,-0.02205,-35.7,24.900002,17.34375
20.12861736334405,-0.3865125,-0.01925,0.05115,8.596951,-0.25395,0.14400001,-35.7,24.900002,17.34375
20.192926045016076,-0.2343,0.5097125,0.1863125,10.092,0.651,1.2390001,-36.1875,24.6,17.212502
20.2572347266881,-0.2407625,0.3617625,0.099,9.582001,0.83505005,1.4779501,-36.1875,24.6,17.212502
20.321543408360128,-0.0374,-0.0246125,0.0862125,9.369,0.66705,1.6560001,-36.1875,24.6,17.212502
20.385852090032152,-0.0374,-0.0246125,0.0862125,10.135051,0.41805002,2.568,-36.600002,24.243752,16.6875
20.45016077170418,0.2360875,-0.012925,-0.0372625,9.711,0.62895006,2.7190502,-36.600002,24.243752,16.6875
20.514469453376204,0.34141248,-0.061875,0.0042625,10.434001,0.54300004,3.17595,-36.600002,24.243752,16.6875
20.578778135048232,0.4851,-0.08525,-0.0341,10.22805,0.78000003,3.2770503,-36.9,23.8875,16.85625
20.643086816720256,0.4851,-0.08525,-0.0341,9.876,0.38700002,2.90805,-36.9,23.8875,16.85625
20.70739549839228,0.484,-0.009625,-0.099,10.21695,0.45900002,1.90005,-36.9,23.8875,16.85625
20.771704180064308,0.3232625,0.1159125,0.0053625,9.94305,1.0309501,0.81495005,-36.9,23.8875,16.85625
20.836012861736332,0.3232625,0.1159125,0.0053625,9.68505,0.73905003,0.56100005,-37.443752,23.643751,16.3875
20.90032154340836,0.2594625,0.0638,0.01485,9.10005,0.50895,0.18495001,-37.443752,23.643751,16.3875
20.964630225080384,0.0710875,0.1595,-0.0265375,8.55,0.16905001,0.23805001,-37.443752,23.643751,16.3875
21.028938906752412,0.0710875,0.1595,-0.0265375,9.201,0.15,-0.018,-37.443752,23.643751,16.3875
21.093247588424436,-0.0396,0.1670625,0.0053625,12.766951,-1.3069501,1.24605,-38.15625,23.04375,15.843751
21.15755627009646,-0.0396,0.1670625,0.0053625,10.176001,-0.582,1.3060501,-38.15625,23.04375,15.843751
21.221864951768488,-0.061875,-0.0479875,-0.0053625,9.826051,-0.95295006,2.53005,-38.15625,23.04375,15.843751
21.286173633440512,-0.2046,-0.205425,-0.14795,8.346001,-0.76395005,2.091,-38.15625,23.04375,15.843751
21.35048231511254,-0.2046,-0.205425,-0.14795,11.3209505,-1.25205,2.42205,-38.15625,23.04375,15.843751
21.414790996784564,-0.1970375,-0.173525,0.0053625,9.76095,-1.2280501,0.91995007,-38.15625,22.6875,15.543751
21.479099678456592,-0.1970375,-0.173525,0.0053625,9.144,-0.99600005,0.32205,-38.15625,22.6875,15.543751
21.543408360128616,-0.23333749,0.1329625,0.1340625,8.415,-0.90705,-0.24705002,-38.15625,22.6875,15.543751
21.60771704180064,-0.23333749,0.1329625,0.1340625,7.4479504,-0.711,-0.72405005,-38.15625,22.6875,15.543751
21.672025723472668,-0.045925,0.5000875,0.157575,9.205951,-0.795,0.06,-38.4,22.743752,15.4875
21.736334405144692,-0.1109625,-0.0309375,0.2404875,11.43795,-0.49995002,0.91995007,-38.4,22.743752,15.4875
21.80064308681672,-0.1109625,-0.0309375,0.2404875,9.603001,-0.41595003,-0.051,-38.4,22.743752,15.4875
21.864951768488744,0.10615,0.0191125,0.1362625,10.011001,-0.42795002,0.33405003,-38.4,22.743752,15.4875
21.929260450160772,0.2253625,-0.0820875,-0.0265375,11.092951,-0.48600003,-0.39105,-38.287502,22.85625,14.94375
21.993569131832796,0.2222,-0.648175,0.0606375,14.155951,0.85395,0.52005005,-38.287502,22.85625,14.94375
22.05787781350482,0.2222,-0.648175,0.0606375,10.173,1.48695,0.075,-38.287502,22.85625,14.94375
22.122186495176848,0.1997875,-0.451275,-0.0,11.457001,0.54105,-0.20205002,-37.74375,23.5125,14.512501
22.186495176848872,0.2435125,0.0840125,-0.0383625,10.00605,0.093,-0.67605,-37.74375,23.5125,14.512501
22.2508038585209,0.2435125,0.0840125,-0.0383625,8.335951,0.49500003,-0.18495001,-37.74375,23.5125,14.512501
22.315112540192924,0.2583625,0.056375,0.124575,8.358001,1.39995,0.753,-37.74375,23.5125,14.512501
22.379421221864952,0.2583625,0.056375,0.124575,11.364,1.89795,0.64005005,-37.3125,24.187502,14.400001
22.443729903536976,0.327525,0.27445,-0.11605,10.6050005,1.17795,0.09195001,-37.3125,24.187502,14.400001
22.508038585209,-0.0257125,0.4830375,-0.369325,8.896951,0.93105006,-0.30705002,-37.3125,24.187502,14.400001
22.572347266881028,-0.0257125,0.4830375,-0.369325,8.68395,1.0510501,-0.07005,-37.3125,24.187502,14.400001
22.636655948553052,-0.098175,-0.1353,-0.24695,8.82705,1.47195,-0.03705,-36.9,24.843752,13.500001
22.70096463022508,-0.0768625,-0.074525,-0.074525,9.927,1.5679501,0.21900001,-36.9,24.843752,13.500001
22.765273311897104,-0.0768625,-0.074525,-0.074525,10.755,1.7209501,0.36900002,-36.9,24.843752,13.500001
22.829581993569132,-0.41745,-0.2660625,-0.2404875,9.703951,1.4670001,0.37695003,-36.9,24.843752,13.500001
22.893890675241156,-0.4547125,0.1659625,-0.0031625,10.2619505,-0.36405003,0.14400001,-36.7125,25.087502,13.856251
22.95819935691318,-0.4547125,0.1659625,-0.0031625,9.318001,0.11400001,0.17805001,-36.7125,25.087502,13.856251
23.022508038585208,-0.356675,-0.288475,0.072325,9.68505,-0.30600002,0.34800002,-36.7125,25.087502,13.856251
23.086816720257232,-0.308825,-0.141625,0.0127875,10.746,0.64605004,0.56295,-36.7125,25.087502,13.856251
23.15112540192926,-0.308825,-0.141625,0.0127875,10.960951,0.13305001,0.73605,-36.05625,25.312502,14.1
23.215434083601284,-0.2237125,0.14685,-0.0127875,10.26,0.19605,0.55395,-36.05625,25.312502,14.1
23.279742765273312,-0.2237125,0.14685,-0.0127875,9.783,0.07305,0.27105,-36.05625,25.312502,14.1
23.344051446945336,0.017875,0.14575,-0.14795,9.313951,0.33195,0.03195,-36.05625,25.312502,14.1
23.40836012861736,0.2083125,0.150975,-0.198,9.4789505,0.21195,-0.015,-35.8125,25.500002,13.9875
23.472668810289388,0.2083125,0.150975,-0.198,9.819,-0.19605,0.26205,-35.8125,25.500002,13.9875
23.536977491961412,-0.0768625,0.2223375,-0.14685,9.0379505,0.11700001,0.11295001,-35.8125,25.500002,13.9875
23.60128617363344,-0.0768625,0.2223375,-0.14685,10.498951,-0.48600003,0.312,-35.8125,25.500002,13.9875
23.665594855305464,-0.2140875,0.216975,0.139425,10.59,-0.45000002,-0.08505,-35.8125,25.556252,14.043751
23.729903536977492,-0.144925,0.0435875,0.1192125,9.108001,-1.0540501,-0.37005,-35.8125,25.556252,14.043751
23.794212218649516,-0.13213749,-0.1766875,0.1607375,10.032001,-1.03005,0.01695,-35.8125,25.556252,14.043751
23.85852090032154,-0.13213749,-0.1766875,0.1607375,10.450951,-0.63195,0.3,-35.8125,25.556252,14.043751
23.922829581993568,-0.080025,-0.2278375,0.2085875,10.545,-0.19395001,0.38595003,-35.756252,25.500002,14.212501
23.987138263665592,0.0625625,-0.08525,0.2299,9.76605,-0.16305001,0.64695,-35.756252,25.500002,14.212501
24.05144694533762,0.0625625,-0.08525,0.2299,9.76605,-0.16305001,0.64695,-35.756252,25.500002,14.212501
24.115755627009644,0.130625,-0.0554125,0.1659625,10.08495,-0.56505,1.0350001,-35.756252,25.500002,14.212501
24.180064308681672,0.1445125,0.0446875,0.0649,10.61205,-0.34695002,1.16505,-35.8125,25.312502,14.587501
24.244372990353696,0.1445125,0.0446875,0.0649,10.33905,-0.28500003,0.75000006,-35.8125,25.312502,14.587501
24.30868167202572,0.018975,0.070125,0.039325,10.33905,-0.28500003,0.75000006,-35.8125,25.312502,14.587501
24.372990353697748,0.018975,0.070125,0.039325,9.582001,-0.37800002,0.47505003,-35.8125,25.312502,14.587501
24.437299035369772,-0.2481875,0.1181125,-0.0011,9.706051,-0.67995006,-0.42000002,-35.756252,25.25625,14.700001
24.5016077170418,-0.2046,-0.033,0.0979,9.706051,-0.67995006,-0.42000002,-35.756252,25.25625,14.700001
24.565916398713824,0.004675,0.033825,0.07535,9.706051,-0.67995006,-0.42000002,-35.756252,25.25625,14.700001
24.630225080385852,0.004675,0.033825,0.07535,9.805051,0.10200001,0.096,-35.7,25.143751,15.356251
24.694533762057876,0.12925,-0.095975,0.000825,9.805051,0.10200001,0.096,-35.7,25.143751,15.356251
24.7588424437299,0.28985,-0.2055625,-0.1555125,8.94705,0.11400001,-0.32895002,-35.7,25.143751,15.356251
24.823151125401928,0.35694999,-0.291775,-0.1065625,8.94705,0.11400001,-0.32895002,-35.4,25.3875,15.4125
24.887459807073952,0.35694999,-0.291775,-0.1065625,10.803,0.33,0.43905002,-35.4,25.3875,15.4125
24.95176848874598,0.2239875,-0.098175,-0.1098625,10.803,0.33,0.43905002,-35.4,25.3875,15.4125
25.016077170418004,0.0845625,-0.0086625,-0.1247125,10.803,0.33,0.43905002,-35.4,25.3875,15.4125
25.080385852090032,0.0845625,-0.0086625,-0.1247125,10.806001,0.51405,0.59205,-35.287502,25.612501,15.543751
25.144694533762056,-0.0496375,0.0955625,-0.05445,9.4810505,0.36600003,-0.18795002,-35.287502,25.612501,15.543751
25.20900321543408,0.0004125,0.0710875,0.0221375,9.4810505,0.36600003,-0.18795002,-35.287502,25.612501,15.543751
25.273311897106108,0.0004125,0.0710875,0.0221375,9.819,0.43305,-0.10095,-35.287502,25.612501,15.543751
25.337620578778132,-0.0144375,-0.15565,0.1700875,9.795,0.01395,-0.291,-35.15625,26.1,15.843751
25.40192926045016,-0.0155375,0.1584,0.181775,9.795,0.01395,-0.291,-35.15625,26.1,15.843751
25.466237942122184,0.06105,0.20625,0.1274625,9.795,0.01395,-0.291,-35.15625,26.1,15.843751
25.530546623794212,0.06105,0.20625,0.1274625,10.17105,0.25305,-0.22605,-34.6875,26.587502,15.95625
25.594855305466236,0.06325,0.050875,0.0221375,10.17105,0.25305,-0.22605,-34.6875,26.587502,15.95625
25.65916398713826,0.06325,0.050875,0.0221375,9.036,-0.05505,-0.43395,-34.6875,26.587502,15.95625
25.723472668810288,0.020625,-0.08965,0.053075,9.40005,-0.90300006,0.39105,-34.6875,26.587502,15.95625
25.787781350482312,-0.011275,-0.0715,0.0275,9.40005,-0.90300006,0.39105,-34.612503,26.8875,15.7875
25.85209003215434,-0.011275,-0.0715,0.0275,9.534,-0.62700003,0.633,-34.612503,26.8875,15.7875
25.916398713826364,-0.1145375,-0.1024375,0.050875,10.927951,-1.6710001,0.78105,-34.612503,26.8875,15.7875
25.980707395498392,-0.1942875,-0.1491875,0.1232,10.927951,-1.6710001,0.78105,-34.612503,26.8875,15.7875
26.045016077170416,-0.1942875,-0.1491875,0.1232,10.2640505,-1.01505,0.34995002,-34.612503,27.056252,15.900001
26.10932475884244,-0.23045,-0.212025,0.034925,10.161,-1.29795,0.38595003,-34.612503,27.056252,15.900001
26.173633440514468,0.0121,0.0807125,0.117975,10.161,-1.29795,0.38595003,-34.612503,27.056252,15.900001
26.237942122186492,0.0121,0.0807125,0.117975,9.903001,-0.9580501,0.14895001,-34.612503,27.056252,15.900001
26.30225080385852,-0.0059125,0.07645,-0.0587125,13.31805,-0.48105,0.03705,-34.5,27.4125,16.143751
26.366559485530544,0.06325,0.1359875,-0.045925,13.31805,-0.48105,0.03705,-34.5,27.4125,16.143751
26.430868167202572,0.06325,0.1359875,-0.045925,13.31805,-0.48105,0.03705,-34.5,27.4125,16.143751
26.495176848874596,0.29947498,0.2509375,0.00935,9.43305,0.94995004,0.25005,-34.5,27.4125,16.143751
26.55948553054662,0.12705,-0.12155,-0.015125,9.43305,0.94995004,0.25005,-34.6875,27.6,15.900001
26.623794212218648,0.12705,-0.12155,-0.015125,9.793051,-0.48405004,0.16305001,-34.6875,27.6,15.900001
26.688102893890672,0.2473625,-0.1161875,-0.0119625,9.793051,-0.48405004,0.16305001,-34.6875,27.6,15.900001
26.7524115755627,0.250525,-0.258775,-0.0182875,9.793051,-0.48405004,0.16305001,-34.5,27.6,15.543751
26.816720257234724,0.250525,-0.258775,-0.0182875,9.759001,-0.261,0.60405004,-34.5,27.6,15.543751
26.881028938906752,0.4101625,-0.047025,0.0455125,9.759001,-0.261,0.60405004,-34.5,27.6,15.543751
26.945337620578776,0.349525,-0.439725,-0.339625,10.9129505,-0.21105,-0.09195001,-34.5,27.6,15.543751
27.0096463022508,0.349525,-0.439725,-0.339625,11.028001,-0.49305,0.441,-34.443752,27.6,15.1125
27.073954983922828,0.0983125,0.1945625,-0.1799875,11.028001,-0.49305,0.441,-34.443752,27.6,15.1125
27.138263665594852,0.0908875,0.115775,0.166925,9.639001,-0.46395,0.34500003,-34.443752,27.6,15.1125
27.20257234726688,0.152625,0.0275,0.131725,9.915001,-0.13905,0.441,-34.443752,27.6,15.1125
27.266881028938904,0.152625,0.0275,0.131725,9.915001,-0.13905,0.441,-34.6875,27.54375,14.700001
27.331189710610932,-0.0187,0.0605,0.0477125,10.903951,0.14805001,0.79605,-34.6875,27.54375,14.700001
27.395498392282956,-0.0187,0.0605,0.0477125,10.903951,0.14805001,0.79605,-34.6875,27.54375,14.700001
27.45980707395498,-0.1282875,-0.065175,0.065725,10.903951,0.14805001,0.79605,-34.6875,27.54375,14.700001
27.524115755627008,-0.1282875,-0.065175,0.065725,10.152,-0.49095002,0.096,-34.74375,27.487501,14.512501
27.588424437299032,-0.0539,-0.15565,-0.0427625,10.152,-0.49095002,0.096,-34.74375,27.487501,14.512501
27.65273311897106,0.0493625,-0.0257125,-0.193875,10.152,-0.49095002,0.096,-34.74375,27.487501,14.512501
27.717041800643084,0.0493625,-0.0257125,-0.193875,10.05405,-1.1010001,0.89595,-34.74375,27.487501,14.512501
27.781350482315112,-0.094325,-0.0364375,-0.111925,10.05405,-1.1010001,0.89595,-35.15625,27.300001,14.587501
27.845659163987136,-0.0804375,-0.0726,-0.130075,10.07295,-1.09695,0.93495005,-35.15625,27.300001,14.587501
27.90996784565916,0.02805,-0.05555,0.020075,8.311951,-1.45395,0.86295,-35.15625,27.300001,14.587501
27.974276527331188,0.02805,-0.05555,0.020075,8.311951,-1.45395,0.86295,-35.04375,26.812502,14.212501
28.038585209003212,0.069575,-0.2024,0.0977625,9.46905,-1.69095,1.3920001,-35.04375,26.812502,14.212501
28.10289389067524,0.3282125,0.0881375,0.098725,9.490951,0.294,0.79605,-35.04375,26.812502,14.212501
28.167202572347264,0.3100625,0.114675,-0.0119625,9.490951,0.294,0.79605,-35.04375,26.812502,14.212501
28.231511254019292,0.3100625,0.114675,-0.0119625,9.273001,0.17400001,0.82500005,-35.34375,26.456251,13.743751
28.295819935691316,0.0994125,0.00935,0.0551375,10.582951,0.22200002,0.70995003,-35.34375,26.456251,13.743751
28.36012861736334,-0.0985875,-0.1150875,0.197725,10.582951,0.22200002,0.70995003,-35.34375,26.456251,13.743751
28.424437299035368,-0.0985875,-0.1150875,0.197725,11.067,0.42795002,0.77895004,-35.34375,26.456251,13.743751
28.488745980707392,-0.1783375,0.1348875,-0.1013375,10.01805,0.84705,1.2870001,-35.5125,26.400002,13.8
28.55305466237942,-0.3251875,0.33495,-0.0119625,10.01805,0.84705,1.2870001,-35.5125,26.400002,13.8
28.617363344051444,-0.3251875,0.33495,-0.0119625,9.799951,0.18105,0.85605,-35.5125,26.400002,13.8
28.681672025723472,-0.21133749,0.0710875,-0.097075,9.799951,0.18105,0.85605,-35.5125,26.400002,13.312501
28.745980707395496,0.0356125,0.163625,-0.0694375,9.538951,0.82305,0.324,-35.5125,26.400002,13.312501
28.81028938906752,0.0356125,0.163625,-0.0694375,9.523951,0.588,0.171,-35.5125,26.400002,13.312501
28.874598070739548,0.15895,0.30305,-0.260975,9.523951,0.588,0.171,-35.5125,26.400002,13.312501
28.938906752411572,0.0834625,0.22013749,-0.3460875,9.496051,0.58395004,-0.13695,-35.756252,26.2875,12.95625
29.0032154340836,0.0834625,0.22013749,-0.3460875,9.963,0.70095,-0.51600003,-35.756252,26.2875,12.95625
29.067524115755624,0.2611125,-0.0034375,-0.1417625,9.963,0.70095,-0.51600003,-35.756252,26.2875,12.95625
29.131832797427652,0.1951125,-0.1758625,0.0605,17.830051,0.045,0.52005005,-35.756252,26.2875,12.95625
29.196141479099676,0.1951125,-0.1758625,0.0605,17.830051,0.045,0.52005005,-35.8875,26.400002,12.4875
29.260450160771704,-0.0314875,-0.3130875,-0.1076625,17.46405,0.25605002,1.83,-35.8875,26.400002,12.4875
29.324758842443728,-0.0314875,-0.3130875,-0.1076625,8.775001,-0.84300005,-0.64005005,-35.8875,26.400002,12.4875
29.389067524115752,-0.2591875,-0.2695,-0.0449625,8.775001,-0.84300005,-0.64005005,-35.8875,26.400002,12.4875
29.45337620578778,-0.3092375,-0.1343375,0.0605,8.916,0.13305001,-0.45600003,-35.8125,26.156252,12.4125
29.517684887459804,-0.3092375,-0.1343375,0.0605,9.71595,-0.036,0.171,-35.8125,26.156252,12.4125
29.581993569131832,-0.3689125,-0.0427625,0.001925,9.71595,-0.036,0.171,-35.8125,26.156252,12.4125
29.646302250803856,-0.271975,0.1700875,0.0136125,10.147051,0.22200002,0.16305001,-35.8125,26.156252,12.4125
29.710610932475884,-0.158125,0.6021125,0.385,10.147051,0.22200002,0.16305001,-35.456253,26.5125,12.243751
29.774919614147908,0.087725,-0.127875,-0.2695,10.147051,0.22200002,0.16305001,-35.456253,26.5125,12.243751
29.839228295819932,0.087725,-0.127875,-0.2695,10.39395,1.1029501,0.88905007,-35.456253,26.5125,12.243751
29.90353697749196,-0.043175,0.2041875,0.1232,10.39395,1.1029501,0.88905007,-35.643753,26.812502,11.8125
29.967845659163984,-0.157025,0.0732875,-0.05445,10.39395,1.1029501,0.88905007,-35.643753,26.812502,11.8125
30.032154340836012,-0.157025,0.0732875,-0.05445,10.771951,-0.19095,0.82695,-35.643753,26.812502,11.8125
30.096463022508036,0.168575,-0.0396,-0.02255,10.771951,-0.19095,0.82695,-35.643753,26.812502,11.8125
30.160771704180064,0.1962125,-0.080025,-0.0193875,10.411051,-0.07395,0.53895,-35.643753,26.812502,11.587501
30.22508038585209,0.104775,-0.05445,-0.02365,9.75405,0.03495,0.108,-35.643753,26.812502,11.587501
30.289389067524112,0.0504625,-0.02475,-0.0842875,10.123051,0.07095,0.13995,-35.643753,26.812502,11.587501
30.35369774919614,0.0504625,-0.02475,-0.0842875,10.123051,0.07095,0.13995,-35.2125,26.94375,11.2875
30.418006430868164,-0.225225,-0.0108625,-0.0119625,10.123051,0.07095,0.13995,-35.2125,26.94375,11.2875
30.482315112540192,-0.094325,-0.0820875,0.1254,9.948001,0.04695,-0.14205001,-35.2125,26.94375,11.2875
30.546623794212216,-0.094325,-0.0820875,0.1254,9.948001,0.04695,-0.14205001,-35.5875,27.112501,11.8125
30.610932475884244,0.036575,-0.094875,0.10835,9.867001,0.13095,-0.16605,-35.5875,27.112501,11.8125
30.67524115755627,-0.0730125,-0.3333,-0.0609125,10.114051,0.13605,-0.21195,-35.5875,27.112501,11.8125
30.739549839228292,-0.0730125,-0.3333,-0.0609125,10.114051,0.13605,-0.21195,-35.5875,27.112501,11.8125
30.80385852090032,-0.029425,-0.08965,-0.0012375,10.273951,0.10200001,-0.21195,-35.5125,27.4125,12.543751
30.868167202572344,-0.0666875,-0.0119625,-0.0055,10.032001,0.60795003,-0.26205,-35.5125,27.4125,12.543751
30.932475884244372,-0.06875,-0.062975,-0.028875,10.032001,0.60795003,-0.26205,-35.5125,27.4125,12.543751
30.996784565916396,-0.06875,-0.062975,-0.028875,10.153951,0.531,-0.31005,-34.85625,27.487501,13.312501
31.061093247588424,-0.0644875,-0.032175,-0.0193875,9.781051,0.07605001,-0.62100005,-34.85625,27.487501,13.312501
31.12540192926045,-0.110275,-0.0086625,-0.0182875,9.781051,0.07605001,-0.62100005,-34.85625,27.487501,13.312501
31.189710610932472,-0.110275,-0.0086625,-0.0182875,9.781051,0.07605001,-0.62100005,-34.85625,27.487501,13.312501
31.2540192926045,-0.1485,0.018975,-0.0001375,9.879001,0.52395004,-0.35805002,-34.74375,27.656252,13.6125
31.318327974276524,-0.1783375,-0.05445,-0.0182875,9.879001,0.52395004,-0.35805002,-34.74375,27.656252,13.6125
31.382636655948552,-0.1783375,-0.05445,-0.0182875,9.991051,0.36600003,-0.19995001,-34.74375,27.656252,13.6125
31.446945337620576,-0.13255,0.0039875,0.0529375,10.1970005,0.081,-0.324,-34.74375,27.656252,13.6125
31.511254019292604,0.005775,0.050875,0.04125,10.1970005,0.081,-0.324,-34.74375,27.6,13.9875
31.57556270096463,0.005775,0.050875,0.04125,12.27105,-0.23400001,-0.72405005,-34.74375,27.6,13.9875
31.639871382636652,0.0345125,0.0264,0.0061875,12.27105,-0.23400001,-0.72405005,-34.74375,27.6,13.9875
31.70418006430868,0.019525,0.0902,-0.0364375,10.878,-0.32505003,-0.726,-34.74375,27.6,13.9875
31.768488745980704,0.019525,0.0902,-0.0364375,9.208051,0.91200006,-1.059,-34.74375,27.712502,14.700001
31.832797427652732,0.06105,0.0477125,-0.0427625,9.208051,0.91200006,-1.059,-34.74375,27.712502,14.700001
31.897106109324756,0.1749,-0.0737,0.0221375,7.76595,-0.12000001,-1.5619501,-34.74375,27.712502,14.700001
31.961414790996784,0.1749,-0.0737,0.0221375,7.76595,-0.12000001,-1.5619501,-34.74375,27.712502,14.700001
32.02572347266881,0.2685375,-0.1918125,0.00825,10.2640505,0.59295005,-0.53205,-34.74375,27.900002,15.4875
32.09003215434083,0.341,-0.28545,-0.029975,10.2640505,0.59295005,-0.53205,-34.74375,27.900002,15.4875
32.15434083601286,0.3091,-0.1364,0.016775,10.64805,0.67695004,-0.49695003,-34.74375,27.900002,15.4875
32.21864951768489,0.166375,-0.3609375,-0.311025,10.1970005,0.37995002,-1.14795,-34.912502,27.843752,16.143751
32.28295819935691,0.166375,-0.3609375,-0.311025,10.1970005,0.37995002,-1.14795,-34.912502,27.843752,16.143751
32.347266881028936,0.332475,-0.41635,0.163625,9.89595,0.30105,-1.1770501,-34.912502,27.843752,16.143751
32.41157556270096,0.43353748,-0.28325,0.1593625,11.78505,0.65295005,-0.95205003,-34.800003,27.843752,16.44375
32.475884244372985,0.38885,0.1764125,-0.095975,11.78505,0.65295005,-0.95205003,-34.800003,27.843752,16.44375
32.540192926045016,0.218625,0.5275875,0.0402875,11.78505,0.65295005,-0.95205003,-34.800003,27.843752,16.44375
32.60450160771704,0.218625,0.5275875,0.0402875,10.03905,0.69105005,0.22095,-34.85625,27.656252,16.143751
32.668810289389064,0.1951125,0.17325,-0.061875,10.03905,0.69105005,0.22095,-34.85625,27.656252,16.143751
32.73311897106109,0.1951125,0.17325,-0.061875,8.94705,1.1370001,-0.41505003,-34.85625,27.656252,16.143751
32.79742765273312,0.1782,-0.0715,-0.0086625,11.15295,-0.84795004,0.19500001,-34.85625,27.656252,16.143751
32.861736334405144,0.068475,-0.1491875,-0.0683375,11.15295,-0.84795004,0.19500001,-35.15625,27.656252,15.656251
32.92604501607717,0.068475,-0.1491875,-0.0683375,11.02095,-1.03005,0.22605,-35.15625,27.656252,15.656251
32.99035369774919,0.071775,-0.0097625,-0.0853875,10.9129505,-0.261,0.27600002,-35.15625,27.656252,15.656251
33.05466237942122,0.28985,-0.144925,-0.16733749,10.9129505,-0.261,0.27600002,-35.15625,27.656252,15.656251
33.11897106109325,0.28985,-0.144925,-0.16733749,9.594001,-0.19095,0.55605,-35.15625,27.487501,15.000001
33.18327974276527,0.2314125,0.0859375,-0.144925,9.193951,-0.11205,0.51600003,-35.15625,27.487501,15.000001
33.247588424437296,0.2121625,0.001925,-0.0364375,9.193951,-0.11205,0.51600003,-35.15625,27.487501,15.000001
33.31189710610932,0.2121625,0.001925,-0.0364375,8.80305,0.37995002,-0.52095,-35.15625,27.487501,15.000001
33.37620578778135,0.3111625,0.411675,0.180675,8.80305,0.37995002,-0.52095,-34.800003,27.243752,14.043751
33.440514469453376,-0.0187,0.328625,-0.0193875,8.80305,0.37995002,-0.52095,-34.800003,27.243752,14.043751
33.5048231511254,-0.0187,0.328625,-0.0193875,9.781051,0.9480001,-0.07005,-34.800003,27.243752,14.043751
33.569131832797424,-0.4241875,-0.12045,0.0221375,9.781051,0.9480001,-0.07005,-34.800003,27.243752,14.043751
33.63344051446945,-0.36355,-0.2332,0.0859375,10.120951,0.98805004,-0.039,-34.74375,27.056252,13.500001
33.69774919614148,-0.36355,-0.2332,0.0859375,9.30195,0.9480001,-0.07695001,-34.74375,27.056252,13.500001
33.762057877813504,-0.3518625,0.1254,0.07535,10.399051,0.56205004,0.29805002,-34.74375,27.056252,13.500001
33.82636655948553,-0.208175,0.1903,0.0264,10.273951,0.67005,0.18300001,-34.443752,26.75625,12.843751
33.89067524115755,-0.10175,-0.3344,-0.0598125,9.547951,0.19605,-0.22095,-34.443752,26.75625,12.843751
33.95498392282958,-0.1560625,-0.12155,0.003025,9.547951,0.19605,-0.22095,-34.443752,26.75625,12.843751
34.01929260450161,-0.1560625,-0.12155,0.003025,9.345,0.14295001,-0.25905,-34.3125,26.2875,12.4875
34.08360128617363,-0.1698125,-0.0385,-0.0427625,10.40295,0.15495001,0.90405005,-34.3125,26.2875,12.4875
34.147909967845656,-0.060225,-0.0331375,0.0125125,10.40295,0.15495001,0.90405005,-34.3125,26.2875,12.4875
34.21221864951768,-0.060225,-0.0331375,0.0125125,10.41495,0.05895,1.2079501,-34.3125,26.2875,12.4875
34.27652733118971,0.0473,-0.0012375,-0.0512875,10.342951,0.43005002,0.56595004,-34.3875,25.85625,12.356251
34.340836012861736,0.152625,0.13915,-0.113025,10.342951,0.43005002,0.56595004,-34.3875,25.85625,12.356251
34.40514469453376,0.12595,0.0275,-0.1566125,9.534,-0.71805006,0.29505002,-34.3875,25.85625,12.356251
34.469453376205784,0.0163625,0.1211375,-0.02475,9.534,-0.71805006,0.29505002,-34.443752,25.687502,12.356251
34.53376205787781,-0.16665,0.2413125,0.099825,9.534,-0.71805006,0.29505002,-34.443752,25.687502,12.356251
34.59807073954984,-0.16665,0.2413125,0.099825,10.5060005,-0.55995005,0.25905,-34.443752,25.687502,12.356251
34.662379421221864,-0.18259999,0.229625,0.1434125,10.5060005,-0.55995005,0.25905,-34.612503,25.3875,12.6
34.72668810289389,-0.095425,0.1797125,-0.0077,10.5060005,-0.55995005,0.25905,-34.612503,25.3875,12.6
34.79099678456591,-0.095425,0.1797125,-0.0077,11.995951,0.91905004,0.88695,-34.612503,25.3875,12.6
34.85530546623794,-0.061325,-0.1310375,0.07425,11.995951,0.91905004,0.88695,-34.800003,25.500002,13.012501
34.91961414790997,0.1249875,-0.2140875,0.18493749,11.313001,1.1560501,0.669,-34.800003,25.500002,13.012501
34.98392282958199,0.151525,0.0147125,-0.0034375,10.795951,0.31305,0.384,-34.800003,25.500002,13.012501
35.048231511254016,0.0237875,-0.0097625,-0.0672375,10.795951,0.31305,0.384,-34.800003,25.500002,13.012501
35.11254019292604,0.0237875,-0.0097625,-0.0672375,10.189951,0.03,0.381,-35.34375,25.687502,13.312501
35.17684887459807,0.0430375,0.1604625,0.051975,10.011001,0.19095,0.04395,-35.34375,25.687502,13.312501
35.241157556270096,-0.108075,0.264825,-0.0257125,10.011001,0.19095,0.04395,-35.34375,25.687502,13.312501
35.30546623794212,-0.108075,0.264825,-0.0257125,9.694051,0.45900002,-0.04905,-35.5125,25.687502,13.200001
35.369774919614144,-0.1942875,0.2509375,-0.1098625,9.699,0.73695004,0.11595,-35.5125,25.687502,13.200001
35.43408360128617,-0.060225,-0.15345,0.0072875,9.95505,0.62205005,-0.42705002,-35.5125,25.687502,13.200001
35.4983922829582,-0.060225,-0.15345,0.0072875,9.95505,0.62205005,-0.42705002,-35.5125,25.687502,13.200001
35.562700964630224,0.152625,-0.0512875,0.01045,9.823951,0.49695003,-0.78405005,-35.8875,25.85625,12.900001
35.62700964630225,0.077,-0.2960375,-0.08965,10.405951,-0.87900007,-0.12495001,-35.8875,25.85625,12.900001
35.69131832797427,0.077,-0.2960375,-0.08965,10.405951,-0.87900007,-0.12495001,-35.8875,25.85625,12.900001
35.7556270096463,-0.157025,-0.111925,0.0466125,10.405951,-0.87900007,-0.12495001,-35.8875,25.85625,12.900001
35.81993569131833,-0.238975,-0.13213749,-0.0023375,9.460051,-0.19095,-0.61605,-36.05625,26.2875,12.6
35.88424437299035,-0.238975,-0.13213749,-0.0023375,9.460051,-0.19095,-0.61605,-36.05625,26.2875,12.6
35.948553054662376,-0.2380125,-0.1013375,-0.0204875,9.591001,-0.28500003,-0.51600003,-36.05625,26.2875,12.6
36.0128617363344,-0.1219625,-0.0416625,-0.0726,9.984,-0.62205005,-0.86805004,-36.05625,26.2875,12.6
36.07717041800643,-0.0804375,-0.016225,-0.1087625,9.984,-0.62205005,-0.86805004,-35.943752,26.7,12.4875
36.141479099678456,-0.0804375,-0.016225,-0.1087625,11.15295,-0.606,-0.59205,-35.943752,26.7,12.4875
36.20578778135048,-0.0719125,0.5372125,0.0636625,7.9170003,-1.1880001,-1.011,-35.943752,26.7,12.4875
36.270096463022504,-0.0198,0.2765125,0.229625,7.9170003,-1.1880001,-1.011,-35.8125,26.94375,12.356251
36.33440514469453,-0.061325,0.164725,0.196625,9.261001,-0.80205005,-0.55395,-35.8125,26.94375,12.356251
36.39871382636656,-0.141075,-0.274725,-0.130075,9.472051,0.20505,-0.32205,-35.8125,26.94375,12.356251
36.463022508038584,-0.141075,-0.274725,-0.130075,9.472051,0.20505,-0.32205,-35.5875,27.300001,12.0
36.52733118971061,0.0823625,-0.15345,0.1467125,9.723001,-0.03105,-0.23295002,-35.5875,27.300001,12.0
36.59163987138263,0.134475,-0.02365,0.1689875,9.394951,-0.048,-0.49395,-35.5875,27.300001,12.0
36.65594855305466,0.134475,-0.02365,0.1689875,9.394951,-0.048,-0.49395,-35.5875,27.300001,12.0
36.72025723472669,0.1654125,-0.0779625,0.0955625,10.156951,-0.25800002,-0.09900001,-35.5875,27.656252,11.8125
36.78456591639871,0.1068375,-0.1736625,0.164725,10.156951,-0.25800002,-0.09900001,-35.5875,27.656252,11.8125
36.848874598070736,0.1068375,-0.1736625,0.164725,10.108951,-0.381,-0.20205002,-35.5875,27.656252,11.8125
36.91318327974276,-0.0144375,-0.1832875,0.01045,10.5730505,0.01605,-0.35805002,-34.987503,28.143751,11.887501
36.97749196141479,-0.26675,0.1296625,0.0136125,10.41495,0.15495001,-0.37395,-34.987503,28.143751,11.887501
37.041800643086816,-0.26675,0.1296625,0.0136125,9.3810005,0.165,-0.61200005,-34.987503,28.143751,11.887501
37.10610932475884,-0.078375,-0.0055,0.0050875,9.3810005,0.165,-0.61200005,-34.987503,28.143751,11.887501
37.170418006430864,-0.0006875,0.117975,0.0369875,10.446,-0.201,-1.00905,-34.912502,28.743752,12.056251
37.23472668810289,-0.0006875,0.117975,0.0369875,10.446,-0.201,-1.00905,-34.912502,28.743752,12.056251
37.29903536977492,0.102575,0.0721875,0.017875,13.17195,0.19095,-0.432,-34.912502,28.743752,12.056251
37.363344051446944,0.135575,0.1689875,0.003025,10.365001,-1.365,0.34995002,-34.912502,28.743752,12.056251
37.42765273311897,0.1335125,0.1232,-0.0077,10.365001,-1.365,0.34995002,-34.3125,29.156252,12.356251
37.49196141479099,0.0578875,0.07425,0.0061875,9.09105,-0.91695005,0.02505,-34.3125,29.156252,12.356251
37.55627009646302,0.0578875,0.07425,0.0061875,9.77295,-0.28995,0.666,-34.3125,29.156252,12.356251
37.62057877813505,-0.0528,0.036025,-0.0587125,9.77295,-0.28995,0.666,-34.143753,29.587502,12.0
37.68488745980707,-0.1282875,-0.1428625,-0.0012375,9.92895,-0.52395004,0.67800003,-34.143753,29.587502,12.0
37.749196141479096,-0.143275,-0.1150875,0.0039875,9.663,0.33900002,-0.20895001,-34.143753,29.587502,12.0
37.81350482315112,-0.143275,-0.1150875,0.0039875,9.663,0.33900002,-0.20895001,-34.143753,29.7,11.64375
37.87781350482315,-0.16775,-0.08855,0.0551375,9.663,0.33900002,-0.20895001,-34.143753,29.7,11.64375
37.942122186495176,-0.077275,0.04235,-0.049225,9.891001,-0.273,-0.24495001,-34.143753,29.7,11.64375
38.0064308681672,-0.077275,0.04235,-0.049225,9.891001,-0.273,-0.24495001,-34.143753,29.7,11.64375
38.070739549839224,0.1153625,0.083875,0.036025,8.35995,-0.51195,-0.46500003,-33.9,29.7,11.64375
38.13504823151125,-0.18053749,-0.1364,-0.144925,10.34805,-0.096,-0.05805,-33.9,29.7,11.64375
38.19935691318328,-0.18053749,-0.1364,-0.144925,10.34805,-0.096,-0.05805,-33.9,29.7,11.64375
38.263665594855304,0.186725,-0.08635,-0.1269125,10.948951,0.45195,0.23295002,-33.9,29.7,11.64375
38.32797427652733,0.3537875,0.1381875,-0.212025,9.8550005,0.61005,0.94395006,-33.787502,29.75625,11.700001
38.39228295819935,0.3537875,0.1381875,-0.212025,9.8550005,0.61005,0.94395006,-33.787502,29.75625,11.700001
38.45659163987138,0.2685375,-0.0055,-0.179025,10.06305,0.423,1.4419501,-33.787502,29.75625,11.700001
38.52090032154341,0.380325,-0.0001375,-0.0694375,11.047951,0.49500003,1.6560001,-33.787502,29.75625,11.700001
38.58520900321543,0.380325,-0.0001375,-0.0694375,11.047951,0.49500003,1.6560001,-33.7125,29.400002,11.34375
38.649517684887456,0.365475,0.04125,-0.0257125,10.137,1.0170001,1.26795,-33.7125,29.400002,11.34375
38.71382636655948,0.414425,-0.029975,-0.0023375,10.137,1.0170001,1.26795,-33.7125,29.400002,11.34375
38.77813504823151,0.5325375,-0.18535,-0.130075,7.6420503,0.59295005,0.55605,-34.3125,29.1,10.9125
38.842443729903536,0.3601125,-0.2035,-0.0279125,10.209001,-0.522,1.7010001,-34.3125,29.1,10.9125
38.90675241157556,0.3601125,-0.2035,-0.0279125,10.209001,-0.522,1.7010001,-34.3125,29.1,10.9125
38.971061093247584,0.054725,0.1189375,0.328625,10.441951,-0.38505003,1.7200501,-34.443752,28.556252,10.6125
39.03536977491961,-0.026125,0.18493749,-0.08745,9.43095,0.13800001,0.78900003,-34.443752,28.556252,10.6125
39.09967845659164,-0.026125,0.18493749,-0.08745,9.43095,0.13800001,0.78900003,-34.443752,28.556252,10.6125
39.163987138263664,0.0270875,0.3562625,-0.062975,9.43095,0.13800001,0.78900003,-34.443752,28.556252,10.6125
39.22829581993569,-0.1293875,0.2913625,0.0594,9.979051,0.52395004,1.074,-34.987503,28.0125,10.14375
39.29260450160771,-0.1293875,0.2913625,0.0594,9.979051,0.52395004,1.074,-34.987503,28.0125,10.14375
39.35691318327974,-0.208175,0.1285625,-0.047025,9.76395,0.18105,0.96105003,-34.987503,28.0125,10.14375
39.42122186495177,-0.23155,-0.2332,-0.0683375,9.187051,0.11400001,1.9090501,-34.987503,28.0125,10.14375
39.48553054662379,-0.23155,-0.2332,-0.0683375,11.92905,0.20295002,3.1620002,-35.15625,27.35625,10.25625
39.549839228295816,-0.0187,-0.0427625,0.2253625,11.92905,0.20295002,3.1620002,-35.15625,27.35625,10.25625
39.61414790996784,-0.0187,-0.0427625,0.2253625,10.615951,0.63405,2.6950502,-35.15625,27.35625,10.25625
39.67845659163987,-0.0878625,0.1689875,0.0466125,8.39595,-0.558,0.79605,-35.15625,27.35625,10.25625
39.742765273311896,-0.092125,-0.0820875,-0.1024375,8.39595,-0.558,0.79605,-35.4,27.056252,10.3125
39.80707395498392,-0.092125,-0.0820875,-0.1024375,8.286,-0.83295006,0.68805003,-35.4,27.056252,10.3125
39.871382636655945,0.0493625,-0.0609125,-0.0374,10.09395,-0.44805002,-0.05805,-35.4,27.056252,10.3125
39.93569131832797,0.0738375,0.15413749,-0.05555,10.09395,-0.44805002,-0.05805,-35.4,27.056252,10.3125
40.0,0.0738375,0.15413749,-0.05555,10.09395,-0.44805002,-0.05805,-35.8125,26.94375,9.900001
40.064308681672024,0.0004125,0.083875,-0.11935,12.216001,2.2429502,1.50705,-35.8125,26.94375,9.900001
40.12861736334405,-0.1208625,-0.02365,0.001925,12.216001,2.2429502,1.50705,-35.8125,26.94375,9.900001
40.19292604501607,-0.1208625,-0.02365,0.001925,12.58005,2.2339501,1.4260501,-35.8125,26.94375,9.900001
40.2572347266881,-0.1837,0.14025,-0.05665,7.8100505,0.81105006,0.76500005,-36.112503,26.643751,9.712501
40.32154340836013,-0.159225,0.393525,0.0488125,7.8100505,0.81105006,0.76500005,-36.112503,26.643751,9.712501
40.38585209003215,-0.159225,0.393525,0.0488125,9.76395,0.86595005,0.88005006,-36.112503,26.643751,9.712501
40.45016077170418,-0.0070125,0.199925,0.0136125,9.76395,0.86595005,0.88005006,-36.112503,26.400002,9.1875
40.5144694533762,0.23773749,-0.326975,-0.0012375,8.94705,0.73200005,0.23505001,-36.112503,26.400002,9.1875
40.57877813504823,0.23773749,-0.326975,-0.0012375,8.94705,0.73200005,0.23505001,-36.112503,26.400002,9.1875
40.643086816720256,0.49101248,-0.5259375,-0.032175,9.3810005,0.60300004,-0.156,-36.112503,26.400002,9.1875
40.70739549839228,0.35694999,-0.18645,0.017875,11.232,0.02805,1.4640001,-36.112503,26.156252,9.1125
40.771704180064305,0.35694999,-0.18645,0.017875,11.232,0.02805,1.4640001,-36.112503,26.156252,9.1125
40.83601286173633,0.16115,0.2998875,0.0402875,9.58395,0.77505004,1.5670501,-36.112503,26.156252,9.1125
40.90032154340836,-0.1049125,0.4829,-0.1480875,9.663,-0.19395001,-0.06495,-36.112503,26.156252,9.1125
40.964630225080384,-0.1049125,0.4829,-0.1480875,9.74895,1.59405,0.68295,-36.05625,26.1,8.1
41.02893890675241,-0.388025,0.393525,-0.2248125,9.74895,1.59405,0.68295,-36.05625,26.1,8.1
41.09324758842443,0.0493625,0.1764125,-0.1034,9.691951,1.4460001,1.2199501,-36.05625,26.1,8.1
41.157556270096464,0.0493625,0.1764125,-0.1034,9.529051,0.51900005,1.0570501,-36.05625,26.1,8.1
41.22186495176849,-0.0485375,-0.2684,-0.0598125,9.529051,0.51900005,1.0570501,-35.943752,26.156252,7.4437504
41.28617363344051,-0.1783375,-0.08635,-0.1002375,9.27,1.79295,2.55795,-35.943752,26.156252,7.4437504
41.35048231511254,-0.1783375,-0.08635,-0.1002375,9.27,1.79295,2.55795,-35.943752,26.156252,7.4437504
41.41479099678456,-0.3454,-0.15345,-0.1417625,9.538951,1.41495,2.4750001,-35.943752,26.156252,7.4437504
41.47909967845659,-0.242275,-0.2129875,0.036025,9.68505,-0.78105,0.91095006,-36.112503,26.343752,6.95625
41.543408360128616,-0.172975,-0.0609125,-0.0438625,9.68505,-0.78105,0.91095006,-36.112503,26.343752,6.95625
41.60771704180064,-0.172975,-0.0609125,-0.0438625,9.526951,-1.3770001,0.39105,-36.112503,26.343752,6.95625
41.672025723472665,0.019525,0.14245,0.0264,9.95505,-1.31895,-0.05595,-36.112503,26.5125,6.3562503
41.73633440514469,0.118525,0.5116375,0.07645,9.95505,-1.31895,-0.05595,-36.112503,26.5125,6.3562503
41.80064308681672,0.118525,0.5116375,0.07645,9.214951,-1.13505,-0.63105005,-36.112503,26.5125,6.3562503
41.864951768488744,0.134475,-0.163075,0.1434125,10.132951,0.12900001,-0.38205,-36.112503,26.5125,6.3562503
41.92926045016077,0.0473,-0.3768875,0.001925,10.422001,-0.12900001,0.13005,-35.943752,26.643751,6.0
41.99356913183279,0.0473,-0.3768875,0.001925,10.422001,-0.12900001,0.13005,-35.943752,26.643751,6.0
42.057877813504824,0.308,0.0232375,0.1370875,11.067,-0.69195,0.07995001,-35.943752,26.643751,6.0
42.12218649517685,0.9497125,0.1137125,0.2424125,8.29605,-1.4059501,-1.21695,-35.943752,27.112501,5.1000004
42.18649517684887,0.9497125,0.1137125,0.2424125,8.29605,-1.4059501,-1.21695,-35.943752,27.112501,5.1000004
42.2508038585209,1.559525,-0.0726,0.14245,10.173,-1.7910001,-0.906,-35.943752,27.112501,5.1000004
42.31511254019292,1.8968124,-0.08635,0.04345,10.878,-1.60905,0.09405001,-35.943752,27.112501,5.1000004
42.37942122186495,2.3821876,-0.032175,0.2349875,10.878,-1.60905,0.09405001,-35.8875,27.6,3.4875002
42.443729903536976,2.8492749,0.018975,0.22013749,9.517051,0.22005,-0.64500004,-35.8875,27.6,3.4875002
42.508038585209,2.8492749,0.018975,0.22013749,9.517051,0.22005,-0.64500004,-35.8875,27.6,3.4875002
42.572347266881025,2.6279,-0.28861248,0.2264625,10.405951,-0.46395,-0.537,-35.4,27.056252,0.1125
42.63665594855305,2.15325,-0.2578125,0.2413125,8.442,0.14805001,0.16305001,-35.4,27.056252,0.1125
42.70096463022508,2.15325,-0.2578125,0.2413125,8.442,0.14805001,0.16305001,-35.4,27.056252,0.1125
42.765273311897104,1.6702125,-0.2789875,0.163625,8.719951,0.42795002,-0.03705,-35.4,27.056252,0.1125
42.82958199356913,1.1668249,-0.2129875,-0.0086625,10.438951,1.2540001,1.5840001,-35.100002,25.687502,-3.1125002
42.89389067524115,1.1668249,-0.2129875,-0.0086625,10.438951,1.2540001,1.5840001,-35.100002,25.687502,-3.1125002
42.958199356913184,0.856075,-0.062975,-0.1236125,10.33395,1.3450501,1.8900001,-35.100002,25.687502,-3.1125002
43.02250803858521,0.642125,-0.1161875,0.020075,10.353001,0.26295,2.05995,-35.04375,23.643751,-6.4875
43.08681672025723,0.3293125,-0.3557125,-0.1098625,10.353001,0.26295,2.05995,-35.04375,23.643751,-6.4875
43.15112540192926,0.3293125,-0.3557125,-0.1098625,10.86795,-0.23205002,1.3230001,-35.04375,23.643751,-6.4875
43.21543408360128,0.12815,-0.40039998,-0.061875,10.696051,0.78195006,1.1530501,-35.04375,23.643751,-6.4875
43.27974276527331,-0.39655,0.0881375,0.27225,10.696051,0.78195006,1.1530501,-35.2125,21.65625,-10.44375
43.344051446945336,-0.39655,0.0881375,0.27225,10.696051,0.78195006,1.1530501,-35.2125,21.65625,-10.44375
43.40836012861736,-0.402875,0.180675,0.2743125,9.129001,-0.15105,0.657,-35.2125,21.65625,-10.44375
43.472668810289385,-0.3689125,-0.0055,-0.08855,9.129001,-0.15105,0.657,-35.2125,21.65625,-10.44375
43.53697749196141,-0.3496625,0.099825,0.07425,8.025001,-1.9560001,-0.52095,-35.2125,20.1,-14.156251
43.60128617363344,-0.191125,0.523325,0.181775,8.025001,-1.9560001,-0.52095,-35.2125,20.1,-14.156251
43.665594855305464,-0.191125,0.523325,0.181775,9.19095,-0.05205,-0.69495004,-35.2125,20.1,-14.156251
43.72990353697749,-0.238975,0.4563625,-0.23333749,9.19095,-0.05205,-0.69495004,-34.912502,18.4125,-17.8125
43.79421221864951,-0.3284875,0.5149375,0.0402875,10.35105,-0.43800002,-0.44400004,-34.912502,18.4125,-17.8125
43.858520900321544,-0.3284875,0.5149375,0.0402875,10.16895,0.17895001,-0.384,-34.912502,18.4125,-17.8125
43.92282958199357,-0.0911625,0.6171,0.051975,10.16895,0.17895001,-0.384,-34.912502,18.4125,-17.8125
43.98713826366559,0.3537875,0.525525,0.01045,9.979051,0.46605003,-0.41805002,-34.143753,16.556252,-21.712502
44.05144694533762,0.3537875,0.525525,0.01045,9.1050005,0.72705,-0.30705002,-34.143753,16.556252,-21.712502
44.11575562700964,0.5985375,-0.2332,0.1254,9.1050005,0.72705,-0.30705002,-34.143753,16.556252,-21.712502
44.18006430868167,0.7379625,-0.3843125,-0.2715625,9.1390505,0.675,-0.24495001,-33.54375,14.512501,-24.35625
44.244372990353696,0.7379625,-0.3843125,-0.2715625,9.694051,0.67005,-0.70695,-33.54375,14.512501,-24.35625
44.30868167202572,0.2525875,0.0807125,0.1456125,9.694051,0.67005,-0.70695,-33.54375,14.512501,-24.35625
44.372990353697745,0.2355375,-0.1013375,0.3584625,9.529051,0.45195,-0.89205,-33.54375,14.512501,-24.35625
44.43729903536977,0.2355375,-0.1013375,0.3584625,9.99405,1.1539501,-0.94395006,-33.112503,13.387501,-25.556252
44.5016077170418,0.3664375,-0.6909375,0.310475,9.99405,1.1539501,-0.94395006,-33.112503,13.387501,-25.556252
44.565916398713824,0.787875,-0.505725,0.07425,9.502951,0.90705,-0.87000006,-33.112503,13.387501,-25.556252
44.63022508038585,0.242,-0.38541248,-0.781275,10.141951,0.06195,-1.488,-33.412502,12.543751,-25.85625
44.69453376205787,0.0664125,-0.25245,-0.28435,10.141951,0.06195,-1.488,-33.412502,12.543751,-25.85625
44.758842443729904,0.0664125,-0.25245,-0.28435,10.141951,0.06195,-1.488,-33.412502,12.543751,-25.85625
44.82315112540193,0.0792,0.0243375,-0.2024,8.68095,-0.33495003,-1.6560001,-33.412502,12.543751,-25.85625
44.88745980707395,0.0792,0.0243375,-0.2024,8.68095,-0.33495003,-1.6560001,-33.35625,11.8125,-26.156252
44.95176848874598,-0.2932875,-0.0438625,-0.0683375,8.68095,-0.33495003,-1.6560001,-33.35625,11.8125,-26.156252
45.016077170418,-0.33165,-0.0737,-0.1002375,9.10995,-0.14805001,-1.3039501,-33.35625,11.8125,-26.156252
45.08038585209003,-0.33165,-0.0737,-0.1002375,10.417951,0.246,-0.52500004,-33.35625,11.8125,-26.156252
45.144694533762056,-0.223025,-0.1183875,-0.0534875,10.417951,0.246,-0.52500004,-33.112503,11.45625,-26.2875
45.20900321543408,-0.1868625,0.07535,0.0732875,10.85595,-0.024,-0.27105,-33.112503,11.45625,-26.2875
45.273311897106105,-0.1868625,0.07535,0.0732875,12.991951,-1.401,-0.19500001,-33.112503,11.45625,-26.2875
45.33762057877813,-0.126225,0.01045,0.1956625,9.049951,0.97905004,1.5409501,-33.112503,11.45625,-26.2875
45.40192926045016,-0.03575,0.0594,0.165825,9.049951,0.97905004,1.5409501,-33.112503,10.6875,-26.400002
45.466237942122184,-0.03575,0.0594,0.165825,9.049951,0.97905004,1.5409501,-33.112503,10.6875,-26.400002
45.53054662379421,0.0823625,-0.12265,-0.064075,9.60795,-0.68505,0.62805,-33.112503,10.6875,-26.400002
45.59485530546623,0.3026375,-0.0427625,-0.0906125,9.60795,-0.68505,0.62805,-33.35625,9.712501,-26.456251
45.659163987138264,0.3026375,-0.0427625,-0.0906125,9.60795,-0.68505,0.62805,-33.35625,9.712501,-26.456251
45.72347266881029,0.22495,-0.0512875,-0.2300375,8.928,0.01605,0.01995,-33.35625,9.712501,-26.456251
45.78778135048231,0.1441,-0.0108625,-0.2374625,8.928,0.01605,0.01995,-33.35625,9.712501,-26.456251
45.85209003215434,0.1441,-0.0108625,-0.2374625,8.928,0.01605,0.01995,-34.2,8.400001,-26.1
45.91639871382636,-0.0187,0.1265,-0.2237125,9.43095,0.96000004,0.18,-34.2,8.400001,-26.1
45.98070739549839,-0.028325,0.065725,-0.0683375,9.43095,0.96000004,0.18,-34.2,8.400001,-26.1
46.045016077170416,0.0248875,0.016775,0.1263625,10.023001,1.149,0.36195,-34.2,8.400001,-26.1
46.10932475884244,0.0248875,0.016775,0.1263625,9.89595,0.43305,0.02505,-34.912502,7.3875003,-25.800001
46.173633440514465,0.0067375,0.1923625,0.0955625,9.89595,0.43305,0.02505,-34.912502,7.3875003,-25.800001
46.23794212218649,0.0067375,0.1923625,0.0955625,8.776951,0.32505003,1.014,-34.912502,7.3875003,-25.800001
46.30225080385852,0.143,0.2893,0.1700875,8.776951,0.32505003,1.014,-34.912502,7.3875003,-25.800001
46.366559485530544,0.2855875,0.053075,0.2008875,8.776951,0.32505003,1.014,-35.2125,6.6562505,-25.556252
46.43086816720257,0.2855875,0.053075,0.2008875,10.354951,0.29895002,1.3230001,-35.2125,6.6562505,-25.556252
46.49517684887459,0.4995375,0.183975,0.33715,8.90205,0.03795,0.65895003,-35.2125,6.6562505,-25.556252
46.559485530546624,0.2462625,0.18493749,-0.0045375,8.90205,0.03795,0.65895003,-35.2125,6.6562505,-25.556252
46.62379421221865,0.2462625,0.18493749,-0.0045375,11.1,0.44700003,1.8379501,-34.5,6.3,-25.987501
46.68810289389067,0.529375,-0.0609125,0.133925,11.1,0.44700003,1.8379501,-34.5,6.3,-25.987501
46.7524115755627,0.1984125,0.032725,-0.131175,11.1,0.44700003,1.8379501,-34.5,6.3,-25.987501
46.81672025723472,0.1984125,0.032725,-0.131175,11.313001,-0.11205,0.642,-34.2,6.1125,-26.5125
46.88102893890675,-0.011275,0.2211,-0.1694,11.313001,-0.11205,0.642,-34.2,6.1125,-26.5125
46.945337620578776,-0.13585,-0.0928125,-0.0726,10.581,-0.273,0.55905,-34.2,6.1125,-26.5125
47.0096463022508,-0.2688125,0.0147125,-0.0182875,8.83005,0.684,0.46800002,-34.2,6.1125,-26.5125
47.073954983922825,-0.2688125,0.0147125,-0.0182875,9.835951,0.56700003,0.68100005,-33.487503,5.8875003,-27.187502
47.13826366559485,-0.5093,-0.0438625,0.0199375,10.317,0.16005,0.62100005,-33.487503,5.8875003,-27.187502
47.20257234726688,-0.471075,-0.05445,0.14135,10.317,0.16005,0.62100005,-33.487503,5.8875003,-27.187502
47.266881028938904,-0.471075,-0.05445,0.14135,10.37205,-0.30405003,1.4280001,-33.487503,5.8875003,-27.187502
47.33118971061093,-0.553025,-0.179025,0.00935,10.37205,-0.30405003,1.4280001,-32.5875,5.8875003,-27.656252
47.39549839228295,-0.4444,-0.029975,-0.13859999,9.9199505,-0.40005,1.27005,-32.5875,5.8875003,-27.656252
47.459807073954984,-0.3518625,-0.0364375,0.0232375,11.16705,1.3480501,1.5499501,-32.5875,5.8875003,-27.656252
47.52411575562701,-0.3518625,-0.0364375,0.0232375,11.16705,1.3480501,1.5499501,-31.85625,6.24375,-28.0125
47.58842443729903,-0.2061125,-0.15345,-0.1705,9.19095,0.60300004,0.36195,-31.85625,6.24375,-28.0125
47.65273311897106,-0.2061125,-0.15345,-0.1705,9.19095,0.60300004,0.36195,-31.85625,6.24375,-28.0125
47.71704180064308,-0.1816375,-0.128975,-0.0906125,9.19095,0.60300004,0.36195,-31.85625,6.24375,-28.0125
47.78135048231511,-0.0911625,0.3265625,0.083875,9.805051,0.054,-0.59505004,-31.312502,7.0125003,-28.0125
47.845659163987136,-0.0314875,0.147675,-0.1002375,9.805051,0.054,-0.59505004,-31.312502,7.0125003,-28.0125
47.90996784565916,0.0792,-0.15125,0.00935,9.805051,0.054,-0.59505004,-31.312502,7.0125003,-28.0125
47.974276527331185,0.0792,-0.15125,0.00935,13.066951,0.44505003,0.93495005,-30.54375,7.74375,-28.3875
48.03858520900321,0.23127499,0.0243375,0.0594,13.066951,0.44505003,0.93495005,-30.54375,7.74375,-28.3875
48.10289389067524,0.077,-0.1150875,-0.0917125,10.453951,-0.45705003,0.05295,-30.54375,7.74375,-28.3875
48.167202572347264,0.077,-0.1150875,-0.0917125,10.453951,-0.45705003,0.05295,-30.54375,7.74375,-28.3875
48.23151125401929,0.0556875,0.00825,-0.128975,10.14,-0.48600003,0.16095,-30.35625,7.8562503,-28.087502
48.29581993569131,0.0834625,0.14025,0.0572,8.64795,0.10200001,-0.12105001,-30.35625,7.8562503,-28.087502
48.360128617363344,0.0834625,0.14025,0.0572,8.64795,0.10200001,-0.12105001,-30.35625,7.8562503,-28.087502
48.42443729903537,-0.0070125,0.04235,0.000825,11.359051,0.69900006,0.42195,-30.35625,7.8562503,-28.087502
48.48874598070739,0.0163625,0.0488125,-0.0427625,11.359051,0.69900006,0.42195,-30.487501,8.212501,-28.0125
48.55305466237942,-0.1315875,0.0902,0.099825,11.359051,0.69900006,0.42195,-30.487501,8.212501,-28.0125
48.61736334405144,-0.1315875,0.0902,0.099825,8.608951,0.18795002,-0.453,-30.487501,8.212501,-28.0125
48.68167202572347,-0.17407499,0.034925,0.0242,8.608951,0.18795002,-0.453,-30.056252,8.75625,-27.843752
48.745980707395496,0.1483625,-0.355575,-0.0407,9.706051,0.588,0.86295,-30.056252,8.75625,-27.843752
48.81028938906752,0.2514875,-0.3290375,0.1115125,9.706051,0.588,0.86295,-30.056252,8.75625,-27.843752
48.874598070739545,0.2514875,-0.3290375,0.1115125,10.67895,0.41400003,0.75495005,-30.487501,9.056251,-27.112501
48.93890675241157,0.4409625,-0.095975,0.065725,11.91195,-0.261,1.0350001,-30.487501,9.056251,-27.112501
49.0032154340836,0.5314375,0.1700875,0.13915,11.91195,-0.261,1.0350001,-30.487501,9.056251,-27.112501
49.067524115755624,0.4420625,0.53295,0.1551,11.47095,-0.21495001,1.2049501,-30.487501,9.056251,-27.112501
49.13183279742765,0.4420625,0.53295,0.1551,8.86095,0.126,0.52305,-30.6,8.8125,-27.112501
49.19614147909967,0.2739,0.53185,-0.2695,8.86095,0.126,0.52305,-30.6,8.8125,-27.112501
49.260450160771704,0.1216875,-0.111925,0.017875,8.86095,0.126,0.52305,-30.6,8.8125,-27.112501
49.32475884244373,0.0823625,-0.212025,0.149875,9.76605,0.054,0.324,-30.843752,8.34375,-27.487501
49.38906752411575,-0.193325,-0.1002375,0.1254,9.76605,0.054,0.324,-30.843752,8.34375,-27.487501
49.45337620578778,-0.193325,-0.1002375,0.1254,9.093,-0.74205005,0.36195,-30.843752,8.34375,-27.487501
49.5176848874598,-0.2369125,-0.2140875,-0.033275,9.093,-0.74205005,0.36195,-30.7875,7.9125004,-27.843752
49.58199356913183,-0.29645,0.033825,0.00825,11.035951,-0.14295001,0.92700005,-30.7875,7.9125004,-27.843752
49.646302250803856,-0.356125,0.0892375,0.0455125,11.035951,-0.14295001,0.92700005,-30.7875,7.9125004,-27.843752
49.71061093247588,-0.356125,0.0892375,0.0455125,11.035951,-0.14295001,0.92700005,-31.087502,7.6125,-27.54375
49.774919614147905,-0.2209625,-0.160875,-0.062975,9.46905,0.11400001,0.08205,-31.087502,7.6125,-27.54375
49.839228295819936,-0.1241625,0.1051875,-0.3025,9.46905,0.11400001,0.08205,-31.087502,7.6125,-27.54375
49.90353697749196,-0.0144375,0.385,-0.2737625,9.46905,0.11400001,0.08205,-31.087502,7.6125,-27.54375
49.967845659163984,-0.0144375,0.385,-0.2737625,10.08195,0.06405,0.65895003,-30.843752,7.3875003,-28.087502
50.03215434083601,0.12815,0.3009875,-0.1343375,10.08195,0.06405,0.65895003,-30.843752,7.3875003,-28.087502
50.09646302250803,0.12815,0.3009875,-0.1343375,10.08195,0.06405,0.65895003,-30.843752,7.3875003,-28.087502
50.160771704180064,-0.0314875,0.346775,0.0199375,10.08195,-0.057,-0.13695,-30.843752,7.3875003,-28.087502
50.22508038585209,-0.0826375,0.1296625,0.081675,10.08195,-0.057,-0.13695,-30.843752,6.95625,-28.312502
50.28938906752411,-0.0826375,0.1296625,0.081675,9.832951,0.10695001,-0.36,-30.843752,6.95625,-28.312502
50.35369774919614,-0.0070125,-0.2971375,0.04125,9.832951,-0.04005,-0.42705002,-30.843752,6.95625,-28.312502
50.41800643086816,0.0886875,-0.1172875,0.1445125,10.114051,-0.25395,-0.135,-30.843752,6.95625,-28.312502
50.48231511254019,0.0886875,-0.1172875,0.1445125,10.114051,-0.25395,-0.135,-31.087502,6.7875004,-28.500002
50.546623794212216,0.2633125,-0.2237125,0.1678875,10.114051,-0.25395,-0.135,-31.087502,6.7875004,-28.500002
50.61093247588424,0.398475,-0.1566125,0.0264,9.61995,-0.072,-0.11595,-31.087502,6.7875004,-28.500002
50.675241157556265,0.398475,-0.1566125,0.0264,9.61995,-0.072,-0.11595,-31.087502,6.7875004,-28.500002
50.739549839228296,0.398475,0.083875,0.1211375,9.82905,-0.03105,0.01695,-30.843752,6.3,-28.85625
50.80385852090032,0.4016375,0.1519375,0.1956625,12.774,-0.13605,0.096,-30.843752,6.3,-28.85625
50.868167202572344,0.35694999,0.1892,0.0551375,12.774,-0.13605,0.096,-30.843752,6.3,-28.85625
50.93247588424437,0.35694999,0.1892,0.0551375,12.774,-0.13605,0.096,-31.0125,6.05625,-29.156252
50.99678456591639,0.348425,0.0977625,-0.05555,10.05405,-0.41595003,0.07695001,-31.0125,6.05625,-29.156252
51.061093247588424,0.3100625,0.0050875,-0.2673,7.6800003,0.34695002,-0.95205003,-31.0125,6.05625,-29.156252
51.12540192926045,0.2355375,0.04235,-0.1045,7.6800003,0.34695002,-0.95205003,-31.0125,6.05625,-29.156252
51.18971061093247,0.2355375,0.04235,-0.1045,9.694051,0.066,-0.492,-31.087502,5.4,-29.343752
51.2540192926045,0.119625,0.0785125,-0.000275,9.59595,-0.37305,-0.32895002,-31.087502,5.4,-29.343752
51.31832797427652,0.004675,0.0328625,0.0881375,9.59595,-0.37305,-0.32895002,-31.087502,5.4,-29.343752
51.38263665594855,0.004675,0.0328625,0.0881375,9.59595,-0.37305,-0.32895002,-31.143751,4.3875003,-29.5125
51.446945337620576,-0.125125,-0.2044625,0.0944625,9.358951,-0.62700003,-0.34305,-31.143751,4.3875003,-29.5125
51.5112540192926,-0.1156375,-0.2035,0.084975,9.358951,-0.62700003,-0.34305,-31.143751,4.3875003,-29.5125
51.575562700964625,-0.1156375,-0.2035,0.084975,10.05105,0.19800001,-0.05595,-31.143751,4.3875003,-29.5125
51.639871382636656,0.02915,0.01045,0.033825,10.05105,0.19800001,-0.05595,-31.3875,3.54375,-29.75625
51.70418006430868,0.052525,0.0264,-0.0182875,10.23795,0.078,0.03705,-31.3875,3.54375,-29.75625
51.768488745980704,-0.0262625,0.004125,-0.0066,10.135051,-0.522,0.58305,-31.3875,3.54375,-29.75625
51.83279742765273,-0.0262625,0.004125,-0.0066,10.135051,-0.522,0.58305,-31.9125,2.9437501,-29.812502
51.89710610932475,-0.1507,0.0158125,-0.0066,9.378,0.957,-0.99705005,-31.9125,2.9437501,-29.812502
51.961414790996784,-0.2156,0.0253,0.036025,9.378,0.957,-0.99705005,-31.9125,2.9437501,-29.812502
52.02572347266881,-0.2156,0.0253,0.036025,9.405001,0.864,-0.45795003,-31.9125,2.9437501,-29.812502
52.09003215434083,-0.242275,-0.1747625,0.099825,9.405001,0.864,-0.45795003,-32.287502,2.8125,-29.5125
52.15434083601286,-0.258225,-0.3344,0.0061875,9.567,0.066,-0.20700002,-32.287502,2.8125,-29.5125
52.21864951768488,-0.241175,-0.1247125,-0.0045375,9.567,0.066,-0.20700002,-32.287502,2.8125,-29.5125
52.28295819935691,-0.241175,-0.1247125,-0.0045375,10.16895,0.78000003,0.17805001,-32.456253,2.7,-29.212502
52.347266881028936,-0.3018125,-0.2374625,0.1018875,10.16895,0.78000003,0.17805001,-32.456253,2.7,-29.212502
52.41157556270096,-0.3018125,-0.2374625,0.1018875,10.16895,0.78000003,0.17805001,-32.456253,2.7,-29.212502
52.475884244372985,-0.0166375,-0.5886375,-0.3779875,10.16895,0.78000003,0.17805001,-32.456253,2.7,-29.212502
52.540192926045016,0.1568875,-0.1087625,-0.26633748,10.437,1.3090501,-0.897,-32.8875,2.4,-28.9125
52.60450160771704,0.1568875,-0.1087625,-0.26633748,10.437,1.3090501,-0.897,-32.8875,2.4,-28.9125
52.668810289389064,0.0886875,0.1934625,-0.02475,9.261001,-0.51195,-1.2100501,-32.8875,2.4,-28.9125
52.73311897106109,0.0653125,0.199925,-0.0171875,9.261001,-0.51195,-1.2100501,-32.8875,2.4,-28.9125
52.79742765273311,0.0653125,0.199925,-0.0171875,9.250951,-0.38805002,-1.24395,-32.756252,2.2125,-28.612501
52.861736334405144,0.0886875,0.1711875,-0.0534875,9.462001,-0.23400001,-1.45905,-32.756252,2.2125,-28.612501
52.92604501607717,0.0653125,0.133925,-0.02365,9.462001,-0.23400001,-1.45905,-32.756252,2.2125,-28.612501
52.99035369774919,0.0653125,0.133925,-0.02365,9.637051,-0.22005,-1.2559501,-32.756252,2.2125,-28.612501
53.05466237942122,0.1568875,-0.0917125,-0.1067,10.21905,-0.402,-0.93195003,-33.05625,2.4562502,-28.2
53.11897106109324,0.2844875,-0.0364375,-0.0077,10.21905,-0.402,-0.93195003,-33.05625,2.4562502,-28.2
53.18327974276527,0.2844875,-0.0364375,-0.0077,10.35795,-0.25395,-0.726,-33.05625,2.4562502,-28.2
53.247588424437296,-0.00605,-0.081125,0.2233,10.743001,0.02295,-0.81000006,-33.05625,2.4562502,-28.2
53.31189710610932,-0.1538625,-0.3928375,-0.146025,10.743001,0.02295,-0.81000006,-32.8125,2.7,-27.6
53.376205787781345,0.1461625,-0.3674,0.017875,10.743001,0.02295,-0.81000006,-32.8125,2.7,-27.6
53.440514469453376,0.09405,0.20515,0.017875,9.622951,-0.14295001,-0.61605,-32.8125,2.7,-27.6
53.5048231511254,0.09405,0.20515,0.017875,9.622951,-0.14295001,-0.61605,-32.643753,2.7562501,-27.300001
53.569131832797424,0.0994125,0.1467125,-0.02145,9.225,0.105,-0.051,-32.643753,2.7562501,-27.300001
53.63344051446945,0.0994125,0.1467125,-0.02145,10.719001,0.804,0.30705002,-32.643753,2.7562501,-27.300001
53.69774919614147,0.0386375,-0.031075,0.04015,10.719001,0.804,0.30705002,-32.643753,2.7562501,-27.300001
53.762057877813504,-0.322025,-0.064075,-0.0055,11.481001,0.33705002,0.63105005,-32.8125,2.5875,-26.94375
53.82636655948553,-0.322025,-0.064075,-0.0055,10.81305,0.105,1.27695,-32.8125,2.5875,-26.94375
53.89067524115755,-0.5636125,-0.1258125,0.1274625,10.81305,0.105,1.27695,-32.8125,2.5875,-26.94375
53.95498392282958,-0.5977125,-0.225775,0.27115,10.104,-0.11505,0.93900007,-32.8125,2.5875,-26.94375
54.0192926045016,-0.5977125,-0.225775,0.27115,9.642,0.87105006,0.76500005,-32.456253,2.8875,-26.75625
54.08360128617363,-0.5498625,-0.4983,0.2242625,9.642,0.87105006,0.76500005,-32.456253,2.8875,-26.75625
54.147909967845656,-0.1475375,-0.4312,0.180675,9.52005,1.1370001,0.77205,-32.456253,2.8875,-26.75625
54.21221864951768,-0.1007875,-0.1714625,0.034925,10.615951,1.2060001,0.96300006,-33.05625,3.1125002,-25.9125
54.276527331189705,-0.0666875,-0.081125,0.017875,10.615951,1.2060001,0.96300006,-33.05625,3.1125002,-25.9125
54.340836012861736,-0.0666875,-0.081125,0.017875,9.682051,1.45305,1.6990501,-33.05625,3.1125002,-25.9125
54.40514469453376,-0.0166375,-0.031075,-0.0182875,9.682051,1.45305,1.6990501,-33.112503,3.7125,-25.44375
54.469453376205784,0.12815,0.1137125,-0.113025,10.269,0.44205,1.23405,-33.112503,3.7125,-25.44375
54.53376205787781,0.12815,0.1137125,-0.113025,10.269,0.44205,1.23405,-33.112503,3.7125,-25.44375
54.59807073954983,0.0301125,0.1882375,-0.2151875,10.269,0.44205,1.23405,-33.112503,3.7125,-25.44375
54.662379421221864,-0.07095,0.1254,-0.1907125,9.28995,1.7119501,0.25395,-33.487503,4.0125003,-24.900002
54.72668810289389,-0.07095,0.1254,-0.1907125,9.28995,1.7119501,0.25395,-33.487503,4.0125003,-24.900002
54.79099678456591,0.019525,0.0295625,-0.0779625,9.28995,1.7119501,0.25395,-33.487503,4.0125003,-24.900002
54.85530546623794,-0.013475,0.01155,-0.0268125,9.24705,1.48905,0.609,-33.487503,4.0125003,-24.900002
54.91961414790996,-0.013475,0.01155,-0.0268125,9.24705,1.48905,0.609,-33.35625,4.4437504,-24.487501
54.98392282958199,-0.0411125,0.1871375,-0.0023375,9.237,1.37205,0.84795004,-33.35625,4.4437504,-24.487501
55.048231511254016,-0.012375,0.246675,-0.12265,13.189051,-0.82800007,0.91095006,-33.35625,4.4437504,-24.487501
55.11254019292604,-0.012375,0.246675,-0.12265,13.189051,-0.82800007,0.91095006,-33.35625,4.4437504,-24.487501
55.176848874598065,0.0451,0.8798625,-0.1684375,8.3220005,-0.34500003,0.666,-33.84375,4.9875,-24.843752
55.241157556270096,0.2440625,0.82568747,-0.210925,8.3220005,-0.34500003,0.666,-33.84375,4.9875,-24.843752
55.30546623794212,0.2440625,0.82568747,-0.210925,8.3220005,-0.34500003,0.666,-33.84375,4.9875,-24.843752
55.369774919614144,0.35901248,0.385,0.0796125,11.31795,0.045,0.98700005,-33.24375,5.15625,-25.3875
55.43408360128617,0.0823625,0.0466125,-0.0427625,11.31795,0.045,0.98700005,-33.24375,5.15625,-25.3875
55.49839228295819,0.0823625,0.0466125,-0.0427625,11.31795,0.045,0.98700005,-33.24375,5.15625,-25.3875
55.562700964630224,0.1068375,0.0306625,-0.0097625,8.99505,0.018,0.38895002,-33.24375,5.15625,-25.3875
55.62700964630225,0.20253749,0.1892,0.048675,8.99505,0.018,0.38895002,-32.5875,5.5125003,-25.743752
55.69131832797427,0.20253749,0.1892,0.048675,8.99505,0.018,0.38895002,-32.5875,5.5125003,-25.743752
55.7556270096463,0.3271125,0.3562625,-0.0130625,9.847951,0.74205005,1.0540501,-32.5875,5.5125003,-25.743752
55.81993569131832,0.15895,0.196625,-0.1247125,9.847951,0.74205005,1.0540501,-32.5875,5.5125003,-25.743752
55.88424437299035,0.15895,0.196625,-0.1247125,9.7879505,0.71295005,1.0900501,-32.287502,4.8562503,-26.400002
55.948553054662376,0.05885,-0.0023375,0.1189375,12.97605,0.10005,2.3430002,-32.287502,4.8562503,-26.400002
56.0128617363344,-0.1623875,-0.31735,0.0477125,12.97605,0.10005,2.3430002,-32.287502,4.8562503,-26.400002
56.077170418006425,-0.4147,-0.4673625,-0.05555,9.735001,-0.29895002,1.27995,-32.287502,4.8562503,-26.400002
56.141479099678456,-0.4147,-0.4673625,-0.05555,9.735001,-0.29895002,1.27995,-31.312502,4.3875003,-27.7875
56.20578778135048,-0.324225,-0.2556125,0.018975,9.74895,-0.03105,0.74100006,-31.312502,4.3875003,-27.7875
56.270096463022504,-0.1252625,-0.0746625,-0.033275,9.74895,-0.03105,0.74100006,-31.312502,4.3875003,-27.7875
56.33440514469453,-0.1252625,-0.0746625,-0.033275,9.558001,0.22905001,0.64005005,-31.0125,4.0125003,-28.312502
56.39871382636655,0.05885,0.199925,-0.0438625,9.493051,0.90000004,0.23295002,-31.0125,4.0125003,-28.312502
56.463022508038584,0.2919125,0.30525,-0.031075,9.493051,0.90000004,0.23295002,-31.0125,4.0125003,-28.312502
56.52733118971061,0.2919125,0.30525,-0.031075,9.493051,0.90000004,0.23295002,-31.0125,4.0125003,-28.312502
56.59163987138263,0.26427498,0.5042125,0.0551375,10.116,0.24105,0.86805004,-30.4125,3.6000001,-28.987501
56.65594855305466,0.0493625,0.2913625,0.1456125,10.116,0.24105,0.86805004,-30.4125,3.6000001,-28.987501
56.72025723472668,-0.0103125,-0.3524125,-0.1183875,10.116,0.24105,0.86805004,-30.4125,3.6000001,-28.987501
56.78456591639871,-0.0103125,-0.3524125,-0.1183875,9.75195,0.22200002,0.53895,-30.243752,3.1125002,-29.8875
56.848874598070736,-0.10285,-0.048125,0.18493749,9.75195,0.22200002,0.53895,-30.243752,3.1125002,-29.8875
56.91318327974276,-0.045375,0.0317625,0.27225,10.312051,0.35805002,0.666,-30.243752,3.1125002,-29.8875
56.977491961414785,0.0099,-0.274725,-0.0385,10.449,0.29595003,0.60195005,-30.243752,3.1125002,-29.8875
57.041800643086816,0.0099,-0.274725,-0.0385,10.449,0.29595003,0.60195005,-30.112501,2.7,-29.8875
57.10610932475884,0.018425,-0.1172875,0.0061875,10.545,0.18405001,0.63795,-30.112501,2.7,-29.8875
57.170418006430864,-0.00495,0.0902,0.1115125,9.89805,0.19305001,0.16800001,-30.112501,2.7,-29.8875
57.23472668810289,-0.00495,0.0902,0.1115125,9.89805,0.19305001,0.16800001,-30.487501,2.8875,-29.75625
57.29903536977491,0.06215,0.33605,0.196625,9.690001,0.22905001,0.16800001,-30.487501,2.8875,-29.75625
57.363344051446944,0.149325,0.442475,0.033825,10.615951,-0.13395001,0.23805001,-30.487501,2.8875,-29.75625
57.42765273311897,0.149325,0.442475,0.033825,10.615951,-0.13395001,0.23805001,-30.487501,2.8875,-29.75625
57.49196141479099,0.2110625,0.494725,0.1040875,10.462951,-0.033,0.21900001,-30.4125,2.6437502,-30.187502
57.55627009646302,-0.076175,-0.1364,-0.1332375,9.033,-1.02705,0.20895001,-30.4125,2.6437502,-30.187502
57.62057877813504,-0.076175,-0.1364,-0.1332375,9.033,-1.02705,0.20895001,-30.4125,2.6437502,-30.187502
57.68488745980707,-0.2039125,-0.3108875,0.0625625,9.108001,-1.0699501,0.42495003,-30.4125,2.6437502,-30.187502
57.749196141479096,-0.36355,-0.3322,-0.113025,9.108001,-1.0699501,0.42495003,-30.656252,3.1125002,-30.056252
57.81350482315112,-0.4679125,-0.291775,-0.1843875,10.897051,1.4239501,-0.04905,-30.656252,3.1125002,-30.056252
57.877813504823145,-0.4679125,-0.291775,-0.1843875,10.897051,1.4239501,-0.04905,-30.656252,3.1125002,-30.056252
57.942122186495176,-0.357225,-0.2140875,-0.097075,10.897051,1.4239501,-0.04905,-30.712502,3.4875002,-29.75625
58.0064308681672,-0.145475,-0.18755,-0.031075,9.987,-0.88395005,0.08700001,-30.712502,3.4875002,-29.75625
58.070739549839224,0.12705,0.018975,0.001925,9.987,-0.88395005,0.08700001,-30.712502,3.4875002,-29.75625
58.13504823151125,0.12705,0.018975,0.001925,9.987,-0.88395005,0.08700001,-31.0125,3.35625,-30.187502
58.19935691318327,0.2429625,0.1573,-0.0257125,11.233951,0.21705002,0.537,-31.0125,3.35625,-30.187502
58.263665594855304,0.101475,0.0807125,-0.0842875,11.233951,0.21705002,0.537,-31.0125,3.35625,-30.187502
58.32797427652733,0.1057375,-0.1225125,-0.095975,11.280001,-0.105,0.28800002,-31.0125,3.35625,-30.187502
58.39228295819935,0.1057375,-0.1225125,-0.095975,9.77805,0.52095,0.135,-31.25625,3.54375,-30.243752
58.45659163987138,0.103675,0.133925,0.0306625,9.77805,0.52095,0.135,-31.25625,3.54375,-30.243752
58.52090032154341,0.019525,0.11055,-0.047025,10.102051,0.75405,0.384,-31.25625,3.54375,-30.243752
58.58520900321543,0.019525,0.11055,-0.047025,10.02,-0.38505003,0.36195,-31.25625,3.54375,-30.243752
58.649517684887456,0.0429,0.132825,0.0264,10.02,-0.38505003,0.36195,-31.500002,3.7875001,-30.000002
58.71382636655948,-0.0070125,0.0488125,0.04235,9.321,-0.081,0.52005005,-31.500002,3.7875001,-30.000002
58.778135048231505,-0.0070125,0.0488125,0.04235,9.321,-0.081,0.52005005,-31.500002,3.7875001,-30.000002
58.842443729903536,0.0578875,-0.047025,0.10945,9.321,-0.081,0.52005005,-31.44375,3.9,-30.056252
58.90675241157556,0.0897875,-0.0353375,0.0933625,10.255051,0.34695002,0.75495005,-31.44375,3.9,-30.056252
58.971061093247584,0.0897875,-0.0353375,0.0933625,10.255051,0.34695002,0.75495005,-31.44375,3.9,-30.056252
59.03536977491961,0.1802625,0.0551375,0.1254,10.255051,0.34695002,0.75495005,-31.44375,3.9,-30.056252
59.09967845659163,0.22605,-0.11935,-0.0268125,9.663,-0.57900006,0.71205,-31.44375,3.7125,-30.243752
59.163987138263664,0.22605,-0.11935,-0.0268125,9.663,-0.57900006,0.71205,-31.44375,3.7125,-30.243752
59.22829581993569,0.3909125,-0.1959375,-0.0864875,10.24995,-1.3579501,0.61395,-31.44375,3.7125,-30.243752
59.29260450160771,0.1216875,-0.11935,-0.0045375,9.69705,-0.10995001,-0.16800001,-31.44375,3.7125,-30.243752
59.35691318327974,0.1216875,-0.11935,-0.0045375,9.69705,-0.10995001,-0.16800001,-31.743752,4.0875,-29.94375
59.42122186495177,-0.1538625,-0.1395625,0.2008875,9.972,-1.67595,0.40800002,-31.743752,4.0875,-29.94375
59.48553054662379,-0.2146375,-0.12045,0.0614625,9.972,-1.67595,0.40800002,-31.743752,4.0875,-29.94375
59.549839228295816,0.136675,0.0870375,0.2594625,9.033,-0.68505,0.813,-31.743752,4.0875,-29.94375
59.61414790996784,0.136675,0.0870375,0.2594625,9.44295,-0.79695004,-0.25500003,-31.800001,3.9562502,-29.75625
59.678456591639865,0.3282125,0.1456125,0.1615625,9.44295,-0.79695004,-0.25500003,-31.800001,3.9562502,-29.75625
59.742765273311896,0.0259875,0.2360875,-0.0182875,9.15795,-0.60300004,-0.11100001,-31.800001,3.9562502,-29.75625
59.80707395498392,0.0259875,0.2360875,-0.0182875,11.812051,0.21495001,1.3800001,-31.9125,3.7125,-29.8875
59.871382636655945,0.101475,0.2041875,0.0232375,11.812051,0.21495001,1.3800001,-31.9125,3.7125,-29.8875
59.93569131832797,-0.0889625,-0.32793748,-0.0353375,11.71605,-0.79005,1.38705,-31.9125,3.7125,-29.8875
59.99999999999999,-0.0889625,-0.32793748,-0.0353375,9.868951,0.045,0.68805003,-31.9125,3.7125,-29.8875
60.064308681672024,-0.1199,-0.0820875,-0.128975,9.868951,0.045,0.68805003,-31.500002,3.7125,-29.8875
60.12861736334405,-0.1464375,-0.0279125,-0.1758625,10.585051,0.21195,0.58695,-31.500002,3.7125,-29.8875
60.19292604501607,-0.1464375,-0.0279125,-0.1758625,10.585051,0.21195,0.58695,-31.500002,3.7125,-29.8875
60.2572347266881,-0.275275,-0.2343,0.066825,10.585051,0.21195,0.58695,-31.25625,3.7875001,-29.7
60.32154340836013,-0.225225,-0.2226125,-0.0512875,9.12705,-1.4130001,0.68295,-31.25625,3.7875001,-29.7
60.38585209003215,0.036575,-0.08635,-0.258775,9.12705,-1.4130001,0.68295,-31.25625,3.7875001,-29.7
60.45016077170418,-0.16665,0.0913,0.196625,9.184051,-1.3980001,0.9990001,-31.25625,3.7875001,-29.7
60.5144694533762,-0.16665,0.0913,0.196625,10.257001,-3.00795,1.6320001,-30.900002,3.8437502,-29.5125
60.578778135048225,-0.3859625,0.1456125,0.097625,10.257001,-3.00795,1.6320001,-30.900002,3.8437502,-29.5125
60.643086816720256,-0.045375,-0.032175,0.0061875,9.484051,-2.469,1.86405,-30.900002,3.8437502,-29.5125
60.70739549839228,-0.045375,-0.032175,0.0061875,10.06095,-1.0200001,2.5110002,-30.656252,3.9,-29.5125
60.771704180064305,0.3058,0.24887499,0.196625,10.06095,-1.0200001,2.5110002,-30.656252,3.9,-29.5125
60.83601286173633,0.35694999,0.0935,0.081675,9.70905,-1.07295,3.1519501,-30.656252,3.9,-29.5125
60.90032154340835,0.35694999,0.0935,0.081675,9.832951,1.47,3.4609501,-30.656252,3.9,-29.5125
60.964630225080384,0.1216875,-0.3364625,-0.164175,9.832951,1.47,3.4609501,-30.656252,4.0875,-29.212502
61.02893890675241,0.0578875,-0.0820875,0.0253,9.702001,1.55805,3.4039502,-30.656252,4.0875,-29.212502
61.09324758842443,0.0578875,-0.0820875,0.0253,10.044001,2.50395,1.3110001,-30.656252,4.0875,-29.212502
61.15755627009646,-0.1731125,-0.0396,-0.1045,10.044001,2.50395,1.3110001,-30.656252,4.0875,-29.212502
61.22186495176849,-0.1731125,-0.0396,-0.1045,9.226951,2.53095,0.63105005,-30.656252,4.0125003,-28.9125
61.28617363344051,0.29095,-0.276925,0.1753125,9.226951,2.53095,0.63105005,-30.656252,4.0125003,-28.9125
61.35048231511254,0.0078375,0.1595,-0.12045,7.8430505,2.7130501,-0.36495003,-30.656252,4.0125003,-28.9125
61.41479099678456,0.0078375,0.1595,-0.12045,7.8430505,2.7130501,-0.36495003,-30.656252,4.0125003,-28.9125
61.479099678456585,0.25795,0.442475,0.0369875,7.8430505,2.7130501,-0.36495003,-30.35625,3.8437502,-28.9125
61.543408360128616,-0.030525,-0.110825,0.01155,11.30895,1.8000001,0.32595003,-30.35625,3.8437502,-28.9125
61.60771704180064,-0.030525,-0.110825,0.01155,11.30895,1.8000001,0.32595003,-30.35625,3.8437502,-28.9125
61.672025723472665,-0.2124375,0.001925,-0.0864875,11.30895,1.8000001,0.32595003,-30.35625,3.8437502,-28.9125
61.73633440514469,-0.36781248,-0.08965,-0.0290125,8.358001,0.86100006,0.231,-30.35625,3.7875001,-28.687502
61.80064308681671,-0.2965875,-0.014025,0.0870375,8.358001,0.86100006,0.231,-30.35625,3.7875001,-28.687502
61.864951768488744,-0.208175,-0.05555,0.1211375,9.02595,0.74895006,0.37395,-30.35625,3.7875001,-28.687502
61.92926045016077,-0.208175,-0.05555,0.1211375,9.60105,-1.2090001,-0.07995001,-30.300001,4.2000003,-28.44375
61.99356913183279,-0.0485375,-0.097075,-0.0438625,9.60105,-1.2090001,-0.07995001,-30.300001,4.2000003,-28.44375
62.05787781350482,-0.389125,0.1211375,-0.1375,9.42405,-0.49605003,-0.33405003,-30.300001,4.2000003,-28.44375
62.12218649517685,-0.389125,0.1211375,-0.1375,10.26,1.4749501,0.10095,-30.300001,4.2000003,-28.44375
62.18649517684887,-1.3319625,-0.1428625,-0.111925,10.26,1.4749501,0.10095,-30.187502,4.8,-28.500002
62.2508038585209,-2.2163625,-0.3641,-0.2908125,10.245001,-0.49605003,-0.279,-30.187502,4.8,-28.500002
62.31511254019292,-2.2163625,-0.3641,-0.2908125,10.245001,-0.49605003,-0.279,-30.187502,4.8,-28.500002
62.379421221864945,-3.1167126,-0.4195125,-0.243925,10.245001,-0.49605003,-0.279,-30.300001,6.8437505,-27.487501
62.443729903536976,-3.7115374,-0.4631,-0.2630375,9.64605,0.80595005,-0.33405003,-30.300001,6.8437505,-27.487501
62.508038585209,-3.7115374,-0.4631,-0.2630375,9.64605,0.80595005,-0.33405003,-30.300001,6.8437505,-27.487501
62.572347266881025,-4.2766623,-0.535425,-0.2396625,10.462951,-0.69705003,-0.34800002,-30.300001,6.8437505,-27.487501
62.63665594855305,-4.0563874,-0.537625,0.114675,10.462951,-0.69705003,-0.34800002,-30.7875,9.6,-23.456251
62.70096463022507,-4.0563874,-0.537625,0.114675,10.771951,-0.86700004,-0.28305,-30.7875,9.6,-23.456251
62.765273311897104,-3.265625,-0.3982,0.3169375,9.74505,0.02805,-0.58995,-30.7875,9.6,-23.456251
62.82958199356913,-2.647425,-0.34814999,0.1860375,9.74505,0.02805,-0.58995,-30.7875,9.6,-23.456251
62.89389067524115,-2.647425,-0.34814999,0.1860375,10.324051,0.41595003,-0.49395,-30.900002,11.887501,-17.34375
62.95819935691318,-2.0109375,-0.209825,0.310475,10.324051,0.41595003,-0.49395,-30.900002,11.887501,-17.34375
63.02250803858521,-1.41295,-0.2365,0.4478375,9.249001,-0.32805002,-0.66705,-30.900002,11.887501,-17.34375
63.08681672025723,-1.001,0.330825,0.7341125,9.249001,-0.32805002,-0.66705,-30.900002,11.887501,-17.34375
63.15112540192926,-1.001,0.330825,0.7341125,9.220051,0.054,-0.39405003,-31.087502,13.9875,-10.743751
63.21543408360128,-0.8595125,0.20515,0.40094998,10.00605,0.26505002,-0.29505002,-31.087502,13.9875,-10.743751
63.279742765273305,-0.46365,-0.2129875,0.295625,10.00605,0.26505002,-0.29505002,-31.087502,13.9875,-10.743751
63.344051446945336,-0.46365,-0.2129875,0.295625,10.755,0.73905003,0.06,-31.3875,15.95625,-3.6000001
63.40836012861736,-0.7838875,-0.0066,0.0477125,10.6380005,-0.522,0.39600003,-31.3875,15.95625,-3.6000001
63.472668810289385,-0.5721375,0.385,0.1285625,10.6380005,-0.522,0.39600003,-31.3875,15.95625,-3.6000001
63.53697749196141,-0.5721375,0.385,0.1285625,10.22805,-0.9889501,0.42000002,-31.3875,15.95625,-3.6000001
63.60128617363343,-0.64556247,-0.2035,0.033825,10.189951,-1.6639501,0.59505004,-31.44375,17.456251,3.6562502
63.665594855305464,-0.8765625,0.0253,-0.21945,10.189951,-1.6639501,0.59505004,-31.44375,17.456251,3.6562502
63.72990353697749,-0.8765625,0.0253,-0.21945,10.189951,-1.6639501,0.59505004,-31.44375,17.456251,3.6562502
63.79421221864951,-0.7456625,-0.05665,-0.1364,9.37605,0.40905002,0.58500004,-31.500002,18.0,10.9125
63.85852090032154,-0.2784375,-0.1150875,-0.0257125,9.37605,0.40905002,0.58500004,-31.500002,18.0,10.9125
63.92282958199357,-0.06875,0.148775,-0.0342375,9.37605,0.40905002,0.58500004,-31.500002,18.0,10.9125
63.98713826366559,-0.20075,-0.0034375,-0.1024375,9.43605,1.2540001,0.9990001,-31.500002,18.0,10.9125
64.05144694533762,-0.20075,-0.0034375,-0.1024375,9.43605,1.2540001,0.9990001,-31.687502,17.94375,18.1875
64.11575562700965,-0.2167,-0.0246125,-0.1098625,11.043,1.9390501,2.05305,-31.687502,17.94375,18.1875
64.18006430868166,-0.0240625,0.0881375,-0.0407,7.8930006,0.55995005,0.372,-31.687502,17.94375,18.1875
64.2443729903537,0.1131625,0.1860375,0.0317625,7.8930006,0.55995005,0.372,-31.612501,16.44375,24.54375
64.30868167202571,-0.110275,0.0818125,0.00825,8.241,0.01395,0.33600003,-31.612501,16.44375,24.54375
64.37299035369774,-0.110275,0.0818125,0.00825,10.774951,1.1370001,0.42900002,-31.612501,16.44375,24.54375
64.43729903536978,-0.224125,0.050875,-0.0737,10.774951,1.1370001,0.42900002,-31.612501,14.1,28.0125
64.5016077170418,-0.0815375,0.07645,-0.0130625,11.083951,1.2400501,0.84105,-31.612501,14.1,28.0125
64.56591639871382,0.1535875,-0.1469875,-0.0193875,9.385051,0.105,0.91305006,-31.612501,14.1,28.0125
64.63022508038584,0.1535875,-0.1469875,-0.0193875,9.385051,0.105,0.91305006,-31.687502,12.243751,29.1
64.69453376205787,0.22385,-0.15455,0.0721875,10.413,0.08505,0.89400005,-31.687502,12.243751,29.1
64.7588424437299,0.2844875,-0.048125,0.1359875,10.413,0.08505,0.89400005,-31.687502,12.243751,29.1
64.82315112540192,0.2844875,-0.048125,0.1359875,10.992001,-0.89805007,0.55395,-31.687502,12.243751,29.1
64.88745980707395,0.230175,-0.0385,0.1912625,10.992001,-0.89805007,0.55395,-31.9125,10.9875,29.812502
64.95176848874597,0.2536875,0.2531375,0.2008875,10.992001,-0.89805007,0.55395,-31.9125,10.9875,29.812502
65.016077170418,0.2536875,0.2531375,0.2008875,8.334001,-0.25605002,-0.44895002,-31.9125,10.9875,29.812502
65.08038585209003,0.4675,0.2861375,0.294525,8.334001,-0.25605002,-0.44895002,-31.9125,10.9875,29.812502
65.14469453376205,0.329175,0.314875,0.114675,8.334001,-0.25605002,-0.44895002,-32.2125,10.200001,29.812502
65.20900321543408,0.329175,0.314875,0.114675,11.737051,1.113,0.60195005,-32.2125,10.200001,29.812502
65.27331189710611,0.0132,0.20625,-0.0757625,11.737051,1.113,0.60195005,-32.2125,10.200001,29.812502
65.33762057877813,-0.571175,-0.0077,-0.2706,12.046051,0.93600005,0.609,-32.2125,10.200001,29.812502
65.40192926045016,-0.571175,-0.0077,-0.2706,9.357,1.218,0.42705002,-32.7,9.6,29.400002
65.46623794212218,-0.56581247,0.0540375,-0.12045,9.357,1.218,0.42705002,-32.7,9.6,29.400002
65.53054662379421,-0.6243875,0.100925,-0.2162875,9.795,0.67695004,0.04395,-32.7,9.6,29.400002
65.59485530546624,-0.6243875,0.100925,-0.2162875,9.795,0.67695004,0.04395,-33.24375,8.887501,29.212502
65.65916398713826,-1.0553125,-0.1747625,-0.635525,9.795,0.67695004,0.04395,-33.24375,8.887501,29.212502
65.72347266881029,-0.407275,0.0072875,-0.2641375,10.0990505,0.81795,0.20700002,-33.24375,8.887501,29.212502
65.7877813504823,-0.407275,0.0072875,-0.2641375,9.88605,0.57600003,0.43695003,-33.24375,8.887501,29.212502
65.85209003215434,0.345125,-0.5407875,-0.1758625,9.88605,0.57600003,0.43695003,-33.65625,8.2875,29.2875
65.91639871382637,0.19085,-0.15455,-0.2140875,9.682051,0.54795,0.31695002,-33.65625,8.2875,29.2875
65.98070739549838,0.19085,-0.15455,-0.2140875,9.783,0.18105,0.33405003,-33.65625,8.2875,29.2875
66.04501607717042,-0.1167375,-0.0650375,-0.05445,9.783,0.18105,0.33405003,-33.65625,8.2875,29.2875
66.10932475884243,-0.00495,-0.0853875,0.1551,9.783,0.18105,0.33405003,-34.443752,7.5000005,28.987501
66.17363344051446,-0.00495,-0.0853875,0.1551,10.285951,0.33900002,0.57795,-34.443752,7.5000005,28.987501
66.2379421221865,-0.0922625,-0.0650375,-0.05665,10.285951,0.33900002,0.57795,-34.443752,7.5000005,28.987501
66.30225080385851,0.036575,-0.045925,0.1786125,10.19295,0.31305,0.59205,-34.443752,7.5000005,28.987501
66.36655948553054,0.036575,-0.045925,0.1786125,9.59595,0.32505003,0.726,-34.74375,6.8437505,28.9125
66.43086816720256,0.3441625,-0.15125,0.1104125,9.59595,0.32505003,0.726,-34.74375,6.8437505,28.9125
66.49517684887459,0.4313375,0.1445125,0.1178375,10.873051,-0.43605003,0.32205,-34.74375,6.8437505,28.9125
66.55948553054662,0.1524875,0.0061875,0.051975,10.873051,-0.43605003,0.32205,-34.74375,6.8437505,28.9125
66.62379421221864,0.1524875,0.0061875,0.051975,9.56505,0.69405,0.051,-34.987503,6.6000004,28.987501
66.68810289389067,-0.27101249,-0.4343625,-0.0523875,9.56505,0.69405,0.051,-34.987503,6.6000004,28.987501
66.7524115755627,-0.46365,0.0477125,-0.1684375,10.0990505,0.11700001,0.09405001,-34.987503,6.6000004,28.987501
66.81672025723472,-0.46365,0.0477125,-0.1684375,9.87195,-0.57000005,0.23805001,-35.04375,5.8125,28.987501
66.88102893890675,-0.0081125,0.33935,0.149875,9.87195,-0.57000005,0.23805001,-35.04375,5.8125,28.987501
66.94533762057877,-0.0325875,-0.1098625,-0.0842875,10.165951,-0.47595003,0.42705002,-35.04375,5.8125,28.987501
67.0096463022508,-0.0325875,-0.1098625,-0.0842875,10.317,-0.62700003,1.3440001,-35.04375,5.8125,28.987501
67.07395498392283,-0.063525,0.004125,0.048675,10.317,-0.62700003,1.3440001,-35.287502,4.8562503,29.2875
67.13826366559485,0.018425,0.04455,0.1254,9.4810505,-0.40905002,0.88395005,-35.287502,4.8562503,29.2875
67.20257234726688,-0.0730125,0.0147125,0.0125125,9.4810505,-0.40905002,0.88395005,-35.287502,4.8562503,29.2875
67.2668810289389,-0.0730125,0.0147125,0.0125125,9.4810505,-0.40905002,0.88395005,-35.15625,3.9,29.7
67.33118971061093,-0.0528,0.1595,-0.0364375,9.47595,0.09495001,-0.03195,-35.15625,3.9,29.7
67.39549839228296,-0.0528,0.1595,-0.0364375,9.47595,0.09495001,-0.03195,-35.15625,3.9,29.7
67.45980707395498,-0.088,-0.0501875,-0.02255,9.43095,0.23595001,0.05805,-35.15625,3.9,29.7
67.52411575562701,-0.0507375,-0.0609125,0.0275,11.14605,-0.09795,0.87195003,-35.100002,3.7875001,29.8875
67.58842443729903,-0.0507375,-0.0609125,0.0275,11.14605,-0.09795,0.87195003,-35.100002,3.7875001,29.8875
67.65273311897106,-0.0603625,0.033825,0.0264,11.079,0.20505,0.813,-35.100002,3.7875001,29.8875
67.71704180064309,-0.1529,0.0699875,0.033825,10.854,2.6860502,1.524,-35.100002,3.7875001,29.8875
67.7813504823151,-0.1529,0.0699875,0.033825,10.854,2.6860502,1.524,-35.456253,3.6562502,30.000002
67.84565916398714,-0.1304875,0.01045,0.04015,11.107051,1.6540501,1.3470001,-35.456253,3.6562502,30.000002
67.90996784565915,-0.112475,-0.0405625,0.018975,8.719951,0.08505,-0.10605001,-35.456253,3.6562502,30.000002
67.97427652733118,-0.112475,-0.0405625,0.018975,8.719951,0.08505,-0.10605001,-35.456253,3.6562502,30.000002
68.03858520900322,0.017325,0.04455,0.031625,9.096001,1.33605,1.284,-35.2125,3.8437502,30.35625
68.10289389067523,-0.013475,0.0924,-0.05445,9.096001,1.33605,1.284,-35.2125,3.8437502,30.35625
68.16720257234726,-0.013475,0.0924,-0.05445,10.807951,1.1869501,1.15695,-35.2125,3.8437502,30.35625
68.23151125401928,-0.46145,-0.19167499,-0.18865,10.807951,1.1869501,1.15695,-35.2125,3.8437502,30.35625
68.29581993569131,-0.4147,0.0540375,0.2211,10.807951,1.1869501,1.15695,-34.912502,3.7875001,30.112501
68.36012861736334,-0.46254998,0.0232375,0.114675,8.36505,0.96195006,0.79800004,-34.912502,3.7875001,30.112501
68.42443729903536,-0.46254998,0.0232375,0.114675,8.36505,0.96195006,0.79800004,-34.912502,3.7875001,30.112501
68.48874598070739,-0.341275,0.2008875,0.0859375,8.36505,0.96195006,0.79800004,-35.04375,3.05625,29.8875
68.55305466237942,-0.2635875,0.2754125,0.0572,11.040001,-0.30900002,1.45395,-35.04375,3.05625,29.8875
68.61736334405144,-0.2635875,0.2754125,0.0572,11.040001,-0.30900002,1.45395,-35.04375,3.05625,29.8875
68.68167202572347,0.02915,0.102025,-0.0012375,10.36005,-0.26595002,1.44,-35.04375,3.05625,29.8875
68.74598070739549,0.25575,0.07535,-0.1067,8.99505,-0.43095002,0.79605,-35.15625,2.5875,29.400002
68.81028938906752,0.182325,-0.1959375,-0.2652375,8.99505,-0.43095002,0.79605,-35.15625,2.5875,29.400002
68.87459807073955,0.1962125,-0.080025,-0.0853875,10.438951,-0.795,0.07005,-35.15625,2.5875,29.400002
68.93890675241157,0.1962125,-0.080025,-0.0853875,10.438951,-0.795,0.07005,-35.2125,2.1000001,29.2875
69.0032154340836,0.2057,0.0210375,0.0785125,10.438951,-0.795,0.07005,-35.2125,2.1000001,29.2875
69.06752411575562,0.2728,-0.1672,0.187,9.12195,-0.18405001,0.14205001,-35.2125,2.1000001,29.2875
69.13183279742765,0.2728,-0.1672,0.187,9.129001,0.53295004,0.051,-35.4,1.9125,29.456251
69.19614147909968,0.495275,0.1137125,0.3169375,9.129001,0.53295004,0.051,-35.4,1.9125,29.456251
69.2604501607717,0.5974375,0.247775,0.2402125,8.608951,0.97395,-0.16095,-35.4,1.9125,29.456251
69.32475884244373,0.5974375,0.247775,0.2402125,10.49205,-0.28005,-0.55605,-35.4,1.9125,29.456251
69.38906752411575,0.5292375,0.24887499,-0.1056,10.49205,-0.28005,-0.55605,-35.456253,2.2875001,29.1
69.45337620578778,0.149325,-0.0363,-0.3694625,10.49205,-0.28005,-0.55605,-35.456253,2.2875001,29.1
69.51768488745981,0.149325,-0.0363,-0.3694625,10.453951,0.97200006,0.43905002,-35.456253,2.2875001,29.1
69.58199356913182,0.4090625,0.1243,-0.31955,10.453951,0.97200006,0.43905002,-35.456253,2.2875001,29.1
69.64630225080386,0.672925,-0.1705,-0.098175,9.8880005,0.90195006,0.24000001,-35.287502,2.5875,28.9125
69.71061093247587,0.672925,-0.1705,-0.098175,9.615001,1.0890001,0.56805,-35.287502,2.5875,28.9125
69.7749196141479,0.002475,-0.2024,-0.1502875,9.615001,1.0890001,0.56805,-35.287502,2.5875,28.9125
69.83922829581994,-0.5817625,0.1381875,-0.08965,11.00205,0.84495,-0.453,-35.287502,2.5875,28.9125
69.90353697749195,-0.5817625,0.1381875,-0.08965,11.00205,0.84495,-0.453,-35.2125,2.5125,28.500002
69.96784565916398,-0.568975,0.247775,0.064625,11.517,-0.34500003,-0.46800002,-35.2125,2.5125,28.500002
70.032154340836,-0.187,0.0306625,-0.000275,11.517,-0.34500003,-0.46800002,-35.2125,2.5125,28.500002
70.09646302250803,-0.2454375,-0.110825,-0.1832875,10.795951,-0.48105,-0.75000006,-35.2125,2.5125,28.500002
70.16077170418006,-0.2454375,-0.110825,-0.1832875,9.654,-0.29205,-0.60405004,-35.456253,2.8125,28.556252
70.22508038585208,-0.4434375,0.0306625,0.1243,9.654,-0.29205,-0.60405004,-35.456253,2.8125,28.556252
70.28938906752411,-0.192225,0.37867498,0.293425,10.066051,0.27705002,-0.15405001,-35.456253,2.8125,28.556252
70.35369774919614,-0.192225,0.37867498,0.293425,10.066051,0.27705002,-0.15405001,-35.5125,2.8875,28.312502
70.41800643086816,-0.1337875,0.24145,0.21367499,10.066051,0.27705002,-0.15405001,-35.5125,2.8875,28.312502
70.48231511254019,0.002475,-0.08635,0.180675,10.281,-0.37800002,0.14895001,-35.5125,2.8875,28.312502
70.54662379421221,0.002475,-0.08635,0.180675,10.281,-0.37800002,0.14895001,-35.5125,2.8875,28.312502
70.61093247588424,-0.192225,-0.358875,-0.0279125,10.281,-0.37800002,0.14895001,-35.287502,3.1125002,28.44375
70.67524115755627,-0.088,-0.2024,0.07425,10.281,-0.37800002,0.14895001,-35.287502,3.1125002,28.44375
70.73954983922829,0.118525,-0.274725,-0.0342375,9.850051,-0.42405003,0.57105005,-35.287502,3.1125002,28.44375
70.80385852090032,0.118525,-0.274725,-0.0342375,9.850051,-0.42405003,0.57105005,-35.15625,3.35625,28.556252
70.86816720257234,-0.0539,-0.308825,-0.1354375,9.850051,-0.42405003,0.57105005,-35.15625,3.35625,28.556252
70.93247588424437,-0.0539,-0.308825,-0.1354375,10.120951,-0.36405003,-0.45795003,-35.15625,3.35625,28.556252
70.9967845659164,-0.154,-0.127875,-0.02255,10.120951,-0.36405003,-0.45795003,-35.15625,3.35625,28.556252
71.06109324758842,0.0471625,-0.12155,0.23815,9.429001,-0.20595,-0.48900002,-35.04375,3.4125001,28.556252
71.12540192926045,0.0471625,-0.12155,0.23815,10.20195,1.146,-0.42900002,-35.04375,3.4125001,28.556252
71.18971061093247,0.45374998,0.180675,0.04015,10.20195,1.146,-0.42900002,-35.04375,3.4125001,28.556252
71.2540192926045,0.0727375,0.24035,-0.2140875,8.490001,1.218,0.18495001,-35.04375,3.4125001,28.556252
71.31832797427653,0.0727375,0.24035,-0.2140875,8.490001,1.218,0.18495001,-34.987503,3.1875002,28.85625
71.38263665594855,-0.080575,0.1200375,-0.114125,8.490001,1.218,0.18495001,-34.987503,3.1875002,28.85625
71.44694533762058,-0.2965875,-0.128975,-0.1045,10.297951,0.675,0.609,-34.987503,3.1875002,28.85625
71.5112540192926,-0.2965875,-0.128975,-0.1045,10.297951,0.675,0.609,-34.987503,3.1875002,28.85625
71.57556270096462,-0.2624875,-0.12045,-0.016225,10.045951,1.2570001,0.34305,-34.443752,2.8125,28.9125
71.63987138263666,-0.2732125,-0.0831875,-0.18535,10.045951,1.2570001,0.34305,-34.443752,2.8125,28.9125
71.70418006430867,-0.2732125,-0.0831875,-0.18535,9.976951,1.2930001,0.28095,-34.443752,2.8125,28.9125
71.7684887459807,-0.160325,-0.28325,-0.1161875,10.18305,0.46605003,0.18300001,-34.443752,2.8125,28.9125
71.83279742765272,0.0323125,0.0391875,0.0561,10.18305,0.46605003,0.18300001,-34.0125,2.4562502,29.456251
71.89710610932475,-0.26895,-0.21835,0.04125,9.541051,0.57900006,0.44400004,-34.0125,2.4562502,29.456251
71.96141479099678,-0.26895,-0.21835,0.04125,9.541051,0.57900006,0.44400004,-34.0125,2.4562502,29.456251
72.0257234726688,-0.31033748,0.168025,0.0625625,9.541051,0.57900006,0.44400004,-33.54375,1.6875001,29.5125
72.09003215434083,-0.2721125,0.262625,0.015675,9.02595,-0.531,-0.16395001,-33.54375,1.6875001,29.5125
72.15434083601286,-0.33165,-0.0193875,0.04125,9.02595,-0.531,-0.16395001,-33.54375,1.6875001,29.5125
72.21864951768488,-0.33165,-0.0193875,0.04125,9.45495,-0.591,-0.05805,-33.0,1.3875,30.000002
72.28295819935691,-0.064625,-0.0501875,0.04125,8.752951,-1.06305,-0.39795002,-33.0,1.3875,30.000002
72.34726688102893,-0.064625,-0.0501875,0.04125,8.752951,-1.06305,-0.39795002,-33.0,1.3875,30.000002
72.41157556270096,0.1205875,0.0050875,0.018975,9.934051,-0.83595,-0.762,-33.0,1.3875,30.000002
72.47588424437299,0.148225,-0.1150875,-0.0215875,9.934051,-0.83595,-0.762,-33.0,1.3875,30.000002
72.54019292604501,0.148225,-0.1150875,-0.0215875,9.934051,-0.83595,-0.762,-32.756252,1.25625,30.35625
72.60450160771704,0.395175,0.020075,0.0603625,9.682051,-0.47400004,-0.66195005,-32.756252,1.25625,30.35625
72.66881028938906,0.4239125,0.0594,-0.0768625,10.147051,0.13800001,-0.50100005,-32.756252,1.25625,30.35625
72.73311897106109,0.4239125,0.0594,-0.0768625,10.147051,0.13800001,-0.50100005,-32.5125,1.0875001,30.300001
72.79742765273312,0.265375,-0.1640375,-0.19607499,10.35105,-0.11505,-0.57795,-32.5125,1.0875001,30.300001
72.86173633440514,-0.0666875,-0.127875,-0.131175,10.37205,0.066,-1.62195,-32.5125,1.0875001,30.300001
72.92604501607717,-0.0666875,-0.127875,-0.131175,10.37205,0.066,-1.62195,-32.5125,1.0875001,30.300001
72.99035369774919,-0.0422125,-0.0895125,0.2019875,12.09405,0.25800002,-1.2100501,-32.4,0.7875,30.4125
73.05466237942122,0.0152625,-0.02035,0.0221375,9.25395,-0.11205,-0.86805004,-32.4,0.7875,30.4125
73.11897106109325,-0.1093125,0.098725,0.032725,10.722,0.06900001,-1.0690501,-32.4,0.7875,30.4125
73.18327974276527,-0.1093125,0.098725,0.032725,9.706051,0.26505002,-0.63795,-32.4,0.35625002,30.656252
73.2475884244373,0.0141625,0.2946625,0.1689875,9.706051,0.26505002,-0.63795,-32.4,0.35625002,30.656252
73.31189710610931,0.0045375,0.10835,0.01045,9.706051,0.26505002,-0.63795,-32.4,0.35625002,30.656252
73.37620578778134,-0.0848375,-0.0512875,-0.02365,8.75595,0.279,-0.075,-32.4,0.35625002,30.656252
73.44051446945338,-0.0848375,-0.0512875,-0.02365,8.75595,0.279,-0.075,-32.456253,0.1875,30.712502
73.5048231511254,0.06105,-0.11935,0.083875,8.34405,0.58095,0.25005,-32.456253,0.1875,30.712502
73.56913183279742,0.06105,-0.11935,0.083875,12.571051,-0.09105001,0.64995,-32.456253,0.1875,30.712502
73.63344051446944,0.15675,-0.0928125,0.2179375,12.571051,-0.09105001,0.64995,-32.456253,0.1875,30.712502
73.69774919614147,-0.0231,0.020075,-0.0407,10.456051,-0.246,-0.015,-32.943752,0.1875,30.7875
73.7620578778135,-0.0231,0.020075,-0.0407,8.99505,-0.20805001,0.31395,-32.943752,0.1875,30.7875
73.82636655948552,-0.1529,-0.2704625,0.196625,8.99505,-0.20805001,0.31395,-32.943752,0.1875,30.7875
73.89067524115755,0.0152625,-0.126775,0.017875,8.71695,-0.165,0.35505003,-32.943752,0.1875,30.7875
73.95498392282958,0.0152625,-0.126775,0.017875,10.51305,-0.15495001,0.69795,-32.943752,0.4875,31.0125
74.0192926045016,-0.2146375,-0.2545125,-0.0097625,10.51305,-0.15495001,0.69795,-32.943752,0.4875,31.0125
74.08360128617363,-0.30827498,-0.0385,-0.0290125,10.51305,-0.15495001,0.69795,-32.943752,0.4875,31.0125
74.14790996784565,-0.30827498,-0.0385,-0.0290125,10.173,-0.72495,0.81705004,-32.943752,0.4875,31.0125
74.21221864951768,-0.2550625,-0.1161875,-0.05775,10.173,-0.72495,0.81705004,-32.943752,0.71250004,31.500002
74.27652733118971,-0.27101249,0.001925,-0.050325,10.173,-0.72495,0.81705004,-32.943752,0.71250004,31.500002
74.34083601286173,-0.0570625,-0.0661375,-0.031075,9.541051,0.19095,0.01995,-32.943752,0.71250004,31.500002
74.40514469453376,-0.0570625,-0.0661375,-0.031075,9.541051,0.19095,0.01995,-32.943752,0.41250002,31.743752
74.46945337620578,-0.1156375,-0.0055,-0.114125,9.085951,-0.546,-0.63795,-32.943752,0.41250002,31.743752
74.53376205787781,-0.1156375,-0.0055,-0.114125,9.670051,0.09,0.30195,-32.943752,0.41250002,31.743752
74.59807073954984,0.2366375,0.099825,0.0306625,9.670051,0.09,0.30195,-32.943752,0.41250002,31.743752
74.66237942122186,0.3515875,-0.12045,-0.000275,10.726951,0.48105,0.74505,-32.8125,-0.05625,31.9125
74.72668810289389,0.3515875,-0.12045,-0.000275,10.387051,0.45705003,0.71205,-32.8125,-0.05625,31.9125
74.7909967845659,0.15675,-0.29067498,0.0518375,10.387051,0.45705003,0.71205,-32.8125,-0.05625,31.9125
74.85530546623794,0.25685,0.1137125,0.0061875,10.31505,0.53295004,0.68595004,-32.8125,-0.05625,31.9125
74.91961414790997,0.25685,0.1137125,0.0061875,9.7879505,0.64395005,0.23295002,-32.8125,-0.1125,32.15625
