timestamp,gyro_x,gyro_y,gyro_z,acc_x,acc_y,acc_z,mag_x,mag_y,mag_z
0.0,-0.19635,0.096525,-0.087175,9.91005,-0.87600005,3.1000502,-20.8125,-18.65625,-28.44375
0.06613756613756613,0.0037125,0.110275,-0.37675,10.269,0.09705,3.13995,-20.8125,-18.65625,-28.44375
0.13227513227513227,0.0037125,0.110275,-0.37675,10.269,0.09705,3.13995,-33.112503,26.456251,5.15625
0.1984126984126984,-0.2910875,-0.182325,-0.3128125,9.726001,0.52905005,2.4750001,-33.112503,26.456251,5.15625
0.26455026455026454,-0.7913125,-0.12485,-0.661925,9.523951,1.9750501,2.7120001,-33.600002,25.800001,5.5125003
0.3306878306878307,-0.7913125,-0.12485,-0.661925,8.928,3.39105,2.62995,-33.600002,25.800001,5.5125003
0.3968253968253968,-0.3007125,-0.0334125,-0.643775,8.928,3.39105,2.62995,-33.600002,25.800001,5.5125003
0.4629629629629629,0.3537875,0.0325875,-0.2968625,8.892,0.49005002,1.5190501,-33.956253,24.843752,5.9437504
0.5291005291005291,0.4208875,0.46145,-0.0521125,9.313951,1.4820001,2.4390001,-33.956253,24.843752,5.9437504
0.5952380952380952,-0.19635,0.31033748,-0.0968,10.05105,2.052,3.00195,-34.6875,23.643751,5.9437504
0.6613756613756614,-0.125125,0.00605,-0.3309625,9.238951,2.53095,2.8650002,-34.6875,23.643751,5.9437504
0.7275132275132274,0.188925,-0.313225,-0.34375,9.795,2.19105,2.3760002,-34.6875,23.643751,5.9437504
0.7936507936507936,0.188925,-0.313225,-0.34375,10.494,2.95005,2.973,-34.6875,23.643751,5.9437504
0.8597883597883598,0.0845625,-0.4164875,-0.4873,10.494,2.95005,2.973,-35.4,21.900002,6.4125004
0.9259259259259258,0.1483625,-0.02585,-1.0322125,10.09395,4.1860504,2.769,-35.4,21.900002,6.4125004
0.992063492063492,0.36025,0.00385,-2.330625,5.9770503,5.2969503,1.3039501,-35.4,21.900002,6.4125004
1.0582010582010581,0.1186625,1.077725,-2.7445,4.155,6.6649504,1.5649501,-36.7125,17.94375,5.8125
1.1243386243386242,-0.383625,2.09715,-2.6827624,4.9020004,8.058001,2.9490001,-36.7125,17.94375,5.8125
1.1904761904761905,-0.383625,2.09715,-2.6827624,-3.798,10.545,8.71605,-36.7125,17.94375,5.8125
1.2566137566137565,-0.8476875,1.7428125,-3.245825,-3.798,10.545,8.71605,-36.112503,11.2875,3.54375
1.3227513227513228,0.6507875,-0.35475,-2.165625,-1.065,9.205951,6.2520003,-36.112503,11.2875,3.54375
1.3888888888888888,1.005125,-1.293325,-1.9177125,-1.5370501,7.3110003,4.68795,-33.600002,3.4125001,2.34375
1.455026455026455,1.11045,-0.738925,-3.18725,-4.12395,7.3110003,3.25095,-33.600002,3.4125001,2.34375
1.5211640211640212,1.11045,-0.738925,-3.18725,-6.162,4.6650004,0.66195005,-33.600002,3.4125001,2.34375
1.5873015873015872,1.2051874,0.2391125,-2.8221874,-6.162,4.6650004,0.66195005,-27.956251,-4.4437504,2.4
1.6534391534391533,-0.4624125,0.3700125,-2.1346874,-8.66205,2.84205,3.9810002,-27.956251,-4.4437504,2.4
1.7195767195767195,-0.042075,-0.242,-1.4132249,-9.26805,3.288,2.76705,-20.34375,-10.9125,1.9125
1.7857142857142856,-0.042075,-0.242,-1.4132249,-8.62905,1.8960001,3.2310002,-20.34375,-10.9125,1.9125
1.8518518518518516,-0.0963875,-0.7250375,-0.9906875,-8.62905,1.8960001,3.2310002,-20.34375,-10.9125,1.9125
1.917989417989418,-0.1750375,0.8276125,-1.4366,-12.35595,1.55595,3.4950001,-20.34375,-10.9125,1.9125
1.984126984126984,-0.203775,-1.5701125,-2.7094374,-4.4500504,-7.9680004,1.6320001,-1.85625,-16.2,1.0125
2.0502645502645502,-0.203775,-1.5701125,-2.7094374,-4.227,-10.1640005,4.22505,-1.85625,-16.2,1.0125
2.1164021164021163,0.2655125,0.9563125,-2.458225,0.141,-8.863951,0.504,6.7125,-13.8,-0.05625
2.1825396825396823,0.2655125,0.9563125,-2.458225,0.74700004,-10.06095,1.66005,6.7125,-13.8,-0.05625
2.2486772486772484,-0.9519125,2.564375,-2.3997874,0.74700004,-10.06095,1.66005,13.8,-7.8562503,1.2
2.314814814814815,-0.4379375,1.24795,-2.27315,2.2150502,-7.96995,2.39805,13.8,-7.8562503,1.2
2.380952380952381,0.038775,-0.3100625,-2.43705,5.38605,-6.885,2.3500502,13.8,-7.8562503,1.2
2.447089947089947,0.2899875,0.030525,-2.784925,8.05605,-5.06505,2.56605,16.3875,0.71250004,4.0875
2.513227513227513,0.5102625,0.8265125,-2.66255,10.317,-5.151,1.11705,16.3875,0.71250004,4.0875
2.579365079365079,-0.0878625,1.1543125,-1.2365375,6.9859505,-5.0389504,4.2400503,15.1125,9.84375,4.8
2.6455026455026456,0.2718375,0.1156375,-1.085425,14.071951,-5.985,2.5729501,15.1125,9.84375,4.8
2.7116402116402116,0.2718375,0.1156375,-1.085425,13.11705,-3.28605,2.02005,15.1125,9.84375,4.8
2.7777777777777777,-0.4444,-0.410025,-2.7647126,6.3250504,2.4709501,2.38395,9.543751,17.94375,5.45625
2.8439153439153437,-0.0048125,0.55935,-3.047825,5.72805,3.7549503,4.1940002,9.543751,17.94375,5.45625
2.91005291005291,-0.0048125,0.55935,-3.047825,5.223,3.62805,3.9520502,9.543751,17.94375,5.45625
2.976190476190476,0.8210125,1.9386125,-2.7467,5.223,3.62805,3.9520502,1.2,22.3125,4.14375
3.0423280423280423,1.281775,2.402675,-2.1263,5.3500504,4.8109503,3.3970501,1.2,22.3125,4.14375
3.1084656084656084,0.4783625,0.0336875,-3.08935,0.10005,9.31305,6.249,-7.5000005,22.612501,1.3875
3.1746031746031744,0.2985125,-0.430375,-3.15315,1.5660001,9.792001,5.8279505,-7.5000005,22.612501,1.3875
3.2407407407407405,0.2985125,-0.430375,-3.15315,1.3450501,8.146951,3.6670501,-7.5000005,22.612501,1.3875
3.3068783068783065,1.5819374,-1.1114125,-1.7985,1.3450501,8.146951,3.6670501,-15.4875,17.212502,0.3
3.373015873015873,0.95507497,-2.3692625,-2.2486749,-0.80700004,7.7179503,2.403,-15.4875,17.212502,0.3
3.439153439153439,0.660275,-0.87725,-2.7402375,-5.87895,7.2510004,1.059,-18.6,5.64375,0.90000004
3.505291005291005,0.660275,-0.87725,-2.7402375,-7.2109504,7.2250504,2.33295,-18.6,5.64375,0.90000004
3.571428571428571,0.2580875,-0.09185,-2.230525,-7.2109504,7.2250504,2.33295,-18.6,5.64375,0.90000004
3.6375661375661372,-0.566775,-0.217525,-1.6281375,-10.36995,4.1449504,5.3629503,-18.7875,-4.0875,-0.1125
3.7037037037037033,0.1197625,-0.4175875,-1.3366375,-6.9360003,6.20205,2.25705,-18.7875,-4.0875,-0.1125
3.7698412698412698,-0.236775,0.830775,-1.9303625,-9.87705,4.93305,2.1060002,-15.1125,-13.14375,-0.65625
3.835978835978836,-0.236775,0.830775,-1.9303625,-7.4790006,-2.50005,3.3700502,-15.1125,-13.14375,-0.65625
3.902116402116402,-0.32945,-0.5314375,-3.7151124,-7.4790006,-2.50005,3.3700502,-15.1125,-13.14375,-0.65625
3.968253968253968,-0.663575,-0.8305,-4.715425,-4.66305,-4.15005,4.3500004,-7.14375,-17.8125,-0.54375005
4.034391534391534,-0.2569875,-1.818025,-3.5076249,-4.8520503,-5.19,4.34805,-7.14375,-17.8125,-0.54375005
4.1005291005291005,-0.0059125,-1.5052125,-2.40075,-11.3230505,-4.07805,5.064,1.6875001,-18.35625,-3.35625
4.166666666666666,-0.549725,-0.411125,-2.92435,-2.6820002,-11.364,4.52505,1.6875001,-18.35625,-3.35625
4.232804232804233,0.333575,0.9021375,-2.2433126,-1.12995,-8.35095,5.4559503,1.6875001,-18.35625,-3.35625
4.298941798941799,-0.80079997,0.9967375,-2.4402125,-0.44505003,-8.746051,4.8630004,1.6875001,-18.35625,-3.35625
4.365079365079365,-0.80079997,0.9967375,-2.4402125,-0.44505003,-8.746051,4.8630004,10.556251,-14.45625,-3.1875002
4.431216931216931,-0.648725,-0.22605,-2.33585,2.5450501,-7.25895,5.24595,10.556251,-14.45625,-3.1875002
4.497354497354497,1.0626,-0.76876247,-1.9336625,4.5040503,-7.7959504,4.491,16.6875,-7.3875003,-1.7437501
4.563492063492063,1.0626,-0.76876247,-1.9336625,3.8580003,-7.34805,4.84095,16.6875,-7.3875003,-1.7437501
4.62962962962963,0.3773,-0.68035,-1.0715375,3.8580003,-7.34805,4.84095,16.6875,-7.3875003,-1.7437501
4.695767195767195,0.3793625,0.19965,-0.9673125,3.6690001,-7.0080004,5.1160502,16.6875,-7.3875003,-1.7437501
4.761904761904762,0.058025,0.372075,-1.19295,5.0599504,-7.0290003,4.7910004,20.15625,2.04375,-1.6875001
4.8280423280423275,-0.1271875,-0.118525,-1.594175,6.9760504,-5.925,5.91195,20.15625,2.04375,-1.6875001
4.894179894179894,-0.03465,-0.462275,-1.078,6.5880003,-4.953,5.4229503,19.5,11.94375,-3.05625
4.9603174603174605,-0.0122375,-0.09295,-1.086525,6.471,-4.43505,4.7689505,19.5,11.94375,-3.05625
5.026455026455026,-0.0122375,-0.09295,-1.086525,6.8160005,-4.4500504,4.7980504,19.5,11.94375,-3.05625
5.092592592592593,0.0803,-0.0578875,-1.070575,6.8160005,-4.4500504,4.7980504,16.143751,21.35625,-4.14375
5.158730158730158,-0.0526625,-0.1441,-0.3394875,8.46105,-3.9060001,4.4149504,16.143751,21.35625,-4.14375
5.224867724867725,-0.0526625,-0.1441,-0.3394875,8.178,-3.45795,4.7140503,16.143751,21.35625,-4.14375
5.291005291005291,-0.0771375,0.3603875,-0.0308,8.178,-3.45795,4.7140503,11.15625,30.056252,-5.1000004
5.357142857142857,-0.0495,0.2827,-0.088275,7.656,-3.1420503,4.6420503,11.15625,30.056252,-5.1000004
5.423280423280423,-0.0495,0.2827,-0.088275,7.7640004,-3.2310002,4.977,11.15625,30.056252,-5.1000004
5.489417989417989,0.1568875,-0.0471625,-0.0914375,7.7640004,-3.2310002,4.977,11.15625,30.056252,-5.1000004
5.555555555555555,0.0814,-0.004675,-0.0957,8.15205,-3.1350002,5.1000004,3.7125,34.74375,-5.7000003
5.621693121693121,-0.0537625,0.0240625,-0.0169125,8.15205,-3.1350002,5.1000004,3.7125,34.74375,-5.7000003
5.6878306878306875,-0.0537625,0.0240625,-0.0169125,8.133,-3.2070003,5.2819505,-2.8875,36.84375,-5.2875004
5.753968253968254,-0.0836,0.10395,-0.0265375,8.217,-3.2280002,5.0950503,-2.8875,36.84375,-5.2875004
5.82010582010582,-0.0836,0.10395,-0.0265375,8.253,-2.9910002,5.4229503,-2.8875,36.84375,-5.2875004
5.886243386243386,0.038775,-0.0004125,-0.0532125,8.53005,-2.74005,5.4090004,-9.0,37.2,-5.4
5.952380952380952,-0.00165,-0.052525,-0.21065,7.5390005,-3.2280002,6.22305,-9.0,37.2,-5.4
6.018518518518518,-0.253825,0.1007875,-0.8173,7.1029506,-3.6760502,5.83995,-13.6125,36.24375,-5.15625
6.084656084656085,-0.253825,0.1007875,-0.8173,9.17205,-1.01505,5.0010004,-13.6125,36.24375,-5.15625
6.15079365079365,-0.565675,0.0655875,-1.64835,9.17205,-1.01505,5.0010004,-13.6125,36.24375,-5.15625
6.216931216931217,-0.108075,0.33275,-0.659725,9.972,-0.33495003,3.83505,-17.75625,34.6875,-4.74375
6.283068783068782,-0.37193748,-0.8166125,-0.1318625,11.977051,-2.4790502,5.9329505,-17.75625,34.6875,-4.74375
6.349206349206349,0.539,-0.0897875,-2.321,8.78205,0.86100006,2.709,-17.75625,34.6875,-4.74375
6.415343915343915,0.539,-0.0897875,-2.321,8.78205,0.86100006,2.709,-21.300001,31.85625,-4.3875003
6.481481481481481,-0.271975,-0.395175,-2.4124374,5.18895,4.59795,4.69995,-21.300001,31.85625,-4.3875003
6.5476190476190474,-0.271975,-0.395175,-2.4124374,5.8290005,5.57205,4.3120503,-21.300001,31.85625,-4.3875003
6.613756613756613,0.77,1.24905,-1.86065,6.4849505,4.0999503,4.3120503,-24.35625,27.112501,-4.9125004
6.6798941798941796,0.434775,0.8393,-1.803175,12.81,3.5490003,5.61495,-24.35625,27.112501,-4.9125004
6.746031746031746,-0.8210125,-1.1114125,-2.5917375,3.9870002,11.701051,4.683,-24.35625,27.112501,-4.9125004
6.812169312169312,-0.8210125,-1.1114125,-2.5917375,3.9870002,11.701051,4.683,-26.587502,20.5125,-5.64375
6.878306878306878,-0.1144,-1.1006875,-2.506625,2.70105,5.7229505,4.9339504,-26.587502,20.5125,-5.64375
6.944444444444444,0.713625,-1.4179,-3.69105,-1.2930001,8.03895,4.7689505,-26.400002,11.15625,-5.0437503
7.01058201058201,1.725625,0.27101249,-3.1866999,-4.737,8.82195,1.7730001,-26.400002,11.15625,-5.0437503
7.076719576719577,1.725625,0.27101249,-3.1866999,-6.3300004,6.6790504,0.68100005,-26.400002,11.15625,-5.0437503
7.142857142857142,0.4379375,-0.214225,-3.096225,-6.3300004,6.6790504,0.68100005,-23.75625,1.44375,-3.4875002
7.208994708994709,-0.1238875,-0.4387625,-2.2138875,-9.24195,5.6470504,4.3879504,-23.75625,1.44375,-3.4875002
7.2751322751322745,0.29645,-0.7090875,-1.133825,-9.57495,3.3450003,0.82500005,-19.087502,-7.6125,-2.2875001
7.341269841269841,0.29645,-0.7090875,-1.133825,-11.722951,6.01305,3.2670002,-19.087502,-7.6125,-2.2875001
7.4074074074074066,-0.2143625,0.096525,-0.7772875,-11.722951,6.01305,3.2670002,-19.087502,-7.6125,-2.2875001
7.473544973544973,-1.2137125,0.29865,-2.798125,-10.321951,1.2730501,2.7240002,-19.087502,-7.6125,-2.2875001
7.5396825396825395,-1.2137125,0.29865,-2.798125,-10.321951,1.2730501,2.7240002,-11.94375,-14.512501,-1.5
7.605820105820105,-0.0165,0.5413375,-3.174875,-4.85895,-2.0710502,3.8370001,-11.94375,-14.512501,-1.5
7.671957671957672,-0.39325,-0.49307498,-3.4452,-4.8499503,-4.2439504,2.4720001,-11.94375,-14.512501,-1.5
7.738095238095237,0.2453,-1.3050125,-2.7704875,-6.16695,-5.1610503,4.17495,-2.9437501,-18.0,-1.6125001
7.804232804232804,-0.0122375,-1.6828625,-2.244825,-10.96905,-5.68305,3.76305,-2.9437501,-18.0,-1.6125001
7.87037037037037,-0.0122375,-1.6828625,-2.244825,-2.3850002,-10.396951,4.19205,-2.9437501,-18.0,-1.6125001
7.936507936507936,0.0686125,0.33385,-3.6293125,-2.3850002,-10.396951,4.19205,6.1125,-17.212502,-1.5
8.002645502645501,-1.5202,0.715825,-2.6162124,-1.077,-8.77995,2.70705,6.1125,-17.212502,-1.5
8.068783068783068,-0.5825875,1.31285,-3.5622125,0.57900006,-8.073,2.8630502,13.087501,-12.656251,1.3875
8.134920634920634,-1.658525,-0.30153748,-3.1887624,3.11295,-9.1060505,2.08695,13.087501,-12.656251,1.3875
8.201058201058201,0.40713748,0.2613875,-2.8567,6.2070003,-7.59,1.7730001,13.087501,-12.656251,1.3875
8.267195767195767,0.40713748,0.2613875,-2.8567,6.2070003,-7.59,1.7730001,16.612501,-5.9437504,3.7875001
8.333333333333332,-0.3282125,0.8009375,-1.1763124,5.94105,-6.5620503,2.697,16.612501,-5.9437504,3.7875001
8.399470899470899,0.0697125,-0.32175,-0.5462875,10.36005,-6.22905,1.5120001,16.987501,3.35625,5.5125003
8.465608465608465,0.0697125,-0.32175,-0.5462875,10.81995,-7.2709503,0.92295,16.987501,3.35625,5.5125003
8.531746031746032,0.304975,-0.4675,-2.1426625,10.81995,-7.2709503,0.92295,16.987501,3.35625,5.5125003
8.597883597883598,0.927575,-0.39833748,-3.4643126,6.7200003,-1.4770501,2.26605,16.987501,3.35625,5.5125003
8.664021164021163,0.6689375,1.896125,-3.4463,2.32995,4.464,4.01895,12.4125,10.856251,5.34375
8.73015873015873,0.861575,1.70775,-2.4033625,7.656,5.5080004,3.9960003,12.4125,10.856251,5.34375
8.796296296296296,0.861575,1.70775,-2.4033625,7.656,5.5080004,3.9960003,5.2875004,15.187501,3.4125001
8.862433862433862,0.8413625,1.518275,-2.454375,12.292951,3.93705,6.288,5.2875004,15.187501,3.4125001
8.928571428571429,-0.44,-1.10825,-2.5641,0.62895006,9.033,4.9939504,5.2875004,15.187501,3.4125001
8.994708994708994,-0.44,-1.10825,-2.5641,0.62895006,9.033,4.9939504,-3.1875002,15.243751,2.2125
9.06084656084656,-0.283525,-0.9241375,-2.5394876,2.2750502,6.8830504,4.9510503,-3.1875002,15.243751,2.2125
9.126984126984127,-0.283525,-0.9241375,-2.5394876,-0.40395,7.215,4.57695,-3.1875002,15.243751,2.2125
9.193121693121693,0.7891125,-0.952875,-2.5416875,-0.40395,7.215,4.57695,-10.6875,10.6125,2.5875
9.25925925925926,-0.0803,-1.5115374,-3.0971875,-1.7530501,7.7730002,3.7099502,-10.6875,10.6125,2.5875
9.325396825396824,-0.0803,-1.5115374,-3.0971875,-3.8479502,7.7380505,3.7219503,-10.6875,10.6125,2.5875
9.39153439153439,-0.1835625,0.1412125,-2.90675,-7.0530005,6.5620503,5.58795,-14.45625,2.8125,2.8125
9.457671957671957,-0.1568875,0.538175,-2.1404624,-3.4720502,4.33395,5.0539503,-14.45625,2.8125,2.8125
9.523809523809524,0.4156625,-0.4302375,-1.0593,-7.6039505,7.0720506,1.9240501,-14.700001,-6.6562505,1.3875
9.58994708994709,-0.003575,-0.1535875,-0.8155125,-8.467951,6.1470003,3.1210501,-14.700001,-6.6562505,1.3875
9.656084656084655,-0.003575,-0.1535875,-0.8155125,-9.394951,6.21705,6.08895,-14.700001,-6.6562505,1.3875
9.722222222222221,-0.478225,0.522225,-0.7517125,-9.438001,5.9269505,3.5170503,-11.212501,-15.6,0.05625
9.788359788359788,-0.0132,0.69355,-2.3171499,-7.4430003,0.51195,2.3760002,-11.212501,-15.6,0.05625
9.854497354497354,-0.512325,0.1326875,-3.3015125,-7.9680004,-2.86695,5.7319503,-11.212501,-15.6,0.05625
9.920634920634921,-0.512325,0.1326875,-3.3015125,-7.9680004,-2.86695,5.7319503,-4.8562503,-21.956251,-1.85625
9.986772486772486,-1.11045,-1.4062124,-3.5547874,-5.046,-3.417,4.1680503,-4.8562503,-21.956251,-1.85625
10.052910052910052,-1.6542625,-2.0084624,-3.55905,-4.191,-6.2910004,4.158,-4.8562503,-21.956251,-1.85625
10.119047619047619,-1.5882624,-2.0447624,-2.8045876,-7.9219503,-7.386,5.7250504,4.0875,-23.1,-4.4437504
10.185185185185185,-1.0177749,-0.2696375,-1.915925,-1.12995,-8.076,3.5500503,4.0875,-23.1,-4.4437504
10.251322751322752,-1.0177749,-0.2696375,-1.915925,-0.69705003,-12.319951,2.2110002,4.0875,-23.1,-4.4437504
10.317460317460316,-0.2079,1.7109125,-1.9020375,-0.69705003,-12.319951,2.2110002,12.900001,-19.800001,-4.0125003
10.383597883597883,0.3922875,1.0575125,-1.3624874,-1.38195,-7.0579505,3.2340002,12.900001,-19.800001,-4.0125003
10.44973544973545,-0.2121625,1.844975,-2.812975,-0.09495001,-7.9459505,4.1509504,12.900001,-19.800001,-4.0125003
10.515873015873016,-0.0323125,2.3249874,-3.09925,0.72,-9.216001,4.8190503,19.087502,-12.356251,-2.4562502
10.582010582010582,-0.68475,0.9073625,-2.717275,2.04495,-8.109,3.75795,19.087502,-12.356251,-2.4562502
10.648148148148147,-0.68475,0.9073625,-2.717275,4.67205,-7.3360505,2.80995,19.087502,-12.356251,-2.4562502
10.714285714285714,-0.4112625,0.2795375,-2.9748125,4.67205,-7.3360505,2.80995,20.643751,-2.8125,-1.44375
10.78042328042328,0.141075,-0.379225,-2.504425,8.145,-6.6049504,3.4830003,20.643751,-2.8125,-1.44375
10.846560846560847,-0.3037375,1.2425874,-1.1166375,9.594001,-6.339,4.69995,18.300001,6.95625,-0.54375005
10.912698412698411,-0.3037375,1.2425874,-1.1166375,8.81805,-5.9269505,4.84305,18.300001,6.95625,-0.54375005
10.978835978835978,-0.2388375,0.3498,-0.6824125,8.81805,-5.9269505,4.84305,18.300001,6.95625,-0.54375005
11.044973544973544,1.1308,0.1219625,-1.799875,10.618951,-4.94805,4.27605,18.300001,6.95625,-0.54375005
11.11111111111111,1.188275,0.0848375,-3.075875,8.443951,-1.14195,5.169,13.012501,15.4875,-0.7875
11.177248677248677,1.2639,0.3806,-3.1791375,4.84905,3.453,4.33995,13.012501,15.4875,-0.7875
11.243386243386242,1.2639,0.3806,-3.1791375,6.2310004,4.00605,3.9760501,5.45625,20.34375,-2.2125
11.309523809523808,0.49335,0.46048748,-2.4842124,11.233951,5.6590505,4.99695,5.45625,20.34375,-2.2125
11.375661375661375,-0.15895,-1.45915,-2.129875,2.4540002,8.917951,4.8960004,5.45625,20.34375,-2.2125
11.441798941798941,-0.0823625,-0.8855,-2.1704376,3.2610002,8.83905,5.5669503,-3.7125,20.587502,-2.9437501
11.507936507936508,-0.1376375,-0.549175,-1.8000125,1.17495,9.214951,5.631,-3.7125,20.587502,-2.9437501
11.574074074074073,-0.709225,-1.1771375,-2.8290625,1.14405,9.342,4.815,-12.3,15.4875,-1.6875001
11.64021164021164,0.730675,-0.566225,-2.983475,-1.42005,9.14295,4.9180503,-12.3,15.4875,-1.6875001
11.706349206349206,0.730675,-0.566225,-2.983475,-3.18495,8.236051,2.19,-12.3,15.4875,-1.6875001
11.772486772486772,0.8402625,-0.34595,-3.422925,-7.4119506,5.24205,3.078,-17.1,7.4437504,-0.35625002
11.838624338624339,-0.002475,0.7033125,-1.07745,-12.52995,4.75605,2.70195,-17.587502,-1.9875001,-0.41250002
11.904761904761903,-0.87835,0.5522,-2.71095,-9.42195,3.6799502,1.93095,-17.587502,-1.9875001,-0.41250002
11.97089947089947,-0.87835,0.5522,-2.71095,-6.2430005,-1.59195,1.18095,-17.587502,-1.9875001,-0.41250002
12.037037037037036,-0.7326,0.3064875,-3.1312876,-5.3880005,-3.8440502,1.33905,-13.25625,-10.6875,-0.71250004
12.103174603174603,-0.33673748,-0.4481125,-2.8535376,-6.3250504,-3.9490502,2.33295,-13.25625,-10.6875,-0.71250004
12.16931216931217,-0.33673748,-0.4481125,-2.8535376,-7.4070005,-5.84805,2.9560502,-6.7875004,-16.3125,-0.90000004
12.235449735449734,-0.65065,-1.9540125,-2.833325,-10.1980505,-6.6559505,2.13,-6.7875004,-16.3125,-0.90000004
12.3015873015873,0.03575,-1.6889125,-2.7801125,-3.7600503,-9.85995,5.3370004,-6.7875004,-16.3125,-0.90000004
12.367724867724867,0.2187625,1.1790625,-2.525875,-1.45305,-9.5130005,2.6160002,1.44375,-18.056252,-1.0125
12.433862433862434,0.2187625,1.1790625,-2.525875,-0.294,-9.8550005,2.38395,1.44375,-18.056252,-1.0125
12.5,-0.839025,0.76725,-2.8813124,0.90000004,-9.63,3.4110003,9.4875,-14.75625,1.0875001
12.566137566137565,-0.509025,1.3737625,-2.5427876,1.9009501,-9.5460005,0.83205,9.4875,-14.75625,1.0875001
12.632275132275131,-1.3498375,0.1830125,-2.573725,3.62805,-7.6039505,2.42205,9.4875,-14.75625,1.0875001
12.698412698412698,-0.889075,0.429825,-0.382525,8.878051,-7.4719505,1.9770001,14.64375,-8.400001,4.0875
12.764550264550264,-0.889075,0.429825,-0.382525,8.953951,-7.4269505,0.16605,17.456251,0.0,6.6000004
12.83068783068783,0.69135,0.5108125,-0.759275,11.943001,-7.97805,2.7240002,17.456251,0.0,6.6000004
12.896825396825395,0.33165,0.021175,-2.0043375,7.7209506,1.02405,1.15695,17.456251,0.0,6.6000004
12.962962962962962,0.36781248,0.99715,-2.97275,7.5270004,0.73200005,2.8290002,15.6,8.887501,8.043751
13.029100529100528,0.36781248,0.99715,-2.97275,6.93795,2.3059502,4.42395,15.6,8.887501,8.043751
13.095238095238095,0.8009375,2.321,-3.2558625,7.45305,3.6349502,4.58895,9.243751,15.243751,7.4437504
13.161375661375661,1.14895,2.6360126,-3.2228625,7.66095,3.0499501,6.6850505,9.243751,15.243751,7.4437504
13.227513227513226,1.14895,2.6360126,-3.2228625,4.4160004,10.87005,2.25,9.243751,15.243751,7.4437504
13.293650793650793,0.5465625,-1.7378625,-1.85955,5.8099504,8.67405,1.9189501,0.41250002,17.75625,5.2875004
13.359788359788359,0.8595125,-1.532575,-1.0624624,3.8170502,6.5020504,4.60605,0.41250002,17.75625,5.2875004
13.425925925925926,0.10395,-1.2122,-2.7726874,3.9919503,5.0020504,2.7520502,0.41250002,17.75625,5.2875004
13.492063492063492,0.10395,-1.2122,-2.7726874,1.2780001,8.952001,2.33295,-8.512501,15.4875,4.6875
13.558201058201057,-0.0089375,-1.2793,-2.9929626,0.38505003,7.9170003,2.9850001,-8.512501,15.4875,4.6875
13.624338624338623,-0.0089375,-1.2793,-2.9929626,-4.6750503,9.085951,2.937,-8.512501,15.4875,4.6875
13.69047619047619,-0.101475,-0.435325,-3.274975,-4.97205,8.146951,3.04695,-14.700001,8.400001,5.2875004
13.756613756613756,-0.232375,0.334125,-2.8589,-16.237951,9.27795,5.7649503,-14.700001,8.400001,5.2875004
13.822751322751323,-0.232375,0.334125,-2.8589,-4.84005,9.064051,2.091,-14.700001,8.400001,5.2875004
13.888888888888888,1.6022875,-0.7227,-0.78265,-7.6800003,6.0010505,-0.717,-14.700001,8.400001,5.2875004
13.955026455026454,0.3284875,-0.3172125,-1.8404375,-7.8889503,6.47805,1.011,-17.04375,-0.3,5.34375
14.02116402116402,0.3284875,-0.3172125,-1.8404375,-8.02305,2.4829502,2.7910502,-17.04375,-0.3,5.34375
14.087301587301587,-0.4409625,0.4246,-3.03875,-8.004001,-1.521,2.8240502,-14.812501,-9.1875,4.5
14.153439153439153,-0.8655625,-1.32605,-3.1505375,-8.713051,-4.833,3.75795,-9.1875,-15.356251,2.9437501
14.219576719576718,-0.0419375,0.1936,-1.492425,-8.713051,-4.833,3.75795,-9.1875,-15.356251,2.9437501
14.285714285714285,-0.0419375,0.1936,-1.492425,-6.3970504,-5.9560504,3.9760501,-1.25625,-19.143751,1.1437501
14.351851851851851,0.30827498,0.63635,-0.9497125,-6.3970504,-5.9560504,3.9760501,-1.25625,-19.143751,1.1437501
14.417989417989418,0.158125,0.07975,-0.43353748,-6.3970504,-5.9560504,3.9760501,-1.25625,-19.143751,1.1437501
14.484126984126984,0.158125,0.07975,-0.43353748,-7.3740005,-5.9440503,3.6910503,8.587501,-19.85625,1.25625
14.550264550264549,0.0644875,-0.066,-0.2855875,-7.3740005,-5.9440503,3.6910503,8.587501,-19.85625,1.25625
14.616402116402115,0.10175,0.1062875,-0.7720625,-4.1599503,-7.79295,3.3370502,8.587501,-19.85625,1.25625
14.682539682539682,-0.1706375,-0.3097875,-0.7038625,-4.1599503,-7.79295,3.3370502,18.65625,-17.212502,2.5875
14.748677248677248,-0.29947498,-0.83765,-0.75075,-4.368,-7.7880006,4.44105,18.65625,-17.212502,2.5875
14.814814814814813,-0.414425,-0.9365125,-0.644325,-4.368,-7.7880006,4.44105,18.65625,-17.212502,2.5875
14.88095238095238,-0.414425,-0.9365125,-0.644325,1.6830001,-11.328,0.93705004,27.243752,-11.8125,1.8000001
14.947089947089946,-0.984775,0.40645,-0.6634375,1.6830001,-11.328,0.93705004,32.456253,-3.54375,0.84375006
15.013227513227513,0.1942875,0.301125,-1.3563,1.17795,-8.23095,2.21805,32.456253,-3.54375,0.84375006
15.079365079365079,-0.087725,1.9740875,-2.6588376,4.06395,-8.28195,2.4049501,34.2,5.7000003,0.1125
15.145502645502644,-0.7591375,1.477025,-2.32155,4.6069503,-7.6590004,2.69295,34.2,5.7000003,0.1125
15.21164021164021,-0.7591375,1.477025,-2.32155,5.1990004,-7.45305,4.31895,31.800001,15.000001,0.1125
15.277777777777777,-0.46873748,0.6639875,-2.3588126,5.1990004,-7.45305,4.31895,31.800001,15.000001,0.1125
15.343915343915343,-1.47015,0.5757125,-2.198075,7.2040505,-3.8100002,4.9510503,31.800001,15.000001,0.1125
15.41005291005291,-1.47015,0.5757125,-2.198075,6.5070004,-4.584,3.7699502,23.5125,21.300001,2.34375
15.476190476190474,0.9871125,1.0588875,-1.7584875,13.29195,-1.4269501,6.1849504,23.5125,21.300001,2.34375
15.542328042328041,1.253175,0.269225,-2.8716874,13.29195,-1.4269501,6.1849504,14.45625,24.056252,3.05625
15.608465608465607,1.253175,0.269225,-2.8716874,10.102051,-1.386,1.7850001,14.45625,24.056252,3.05625
15.674603174603174,0.3092375,0.27981248,-1.3828375,5.472,6.3750005,3.009,14.45625,24.056252,3.05625
15.74074074074074,-0.275,-0.4566375,-0.22605,5.472,6.3750005,3.009,4.0125003,23.400002,2.34375
15.806878306878305,-0.275,-0.4566375,-0.22605,5.472,6.3750005,3.009,4.0125003,23.400002,2.34375
15.873015873015872,-0.414425,-0.2270125,0.1518,7.01205,5.1529503,3.9760501,-6.1875005,21.712502,1.6875001
15.939153439153438,-0.9007625,-0.1727,0.2624875,7.01205,5.1529503,3.9760501,-6.1875005,21.712502,1.6875001
16.005291005291003,-0.5251125,-0.23773749,-0.4131875,6.2839503,6.1450505,5.3029504,-6.1875005,21.712502,1.6875001
16.07142857142857,-0.152625,0.0209,-0.5110875,6.2839503,6.1450505,5.3029504,-15.843751,19.2,1.8000001
16.137566137566136,0.2369125,0.39765,-0.7739875,5.78805,6.9660006,5.4679503,-15.843751,19.2,1.8000001
16.203703703703702,0.5380375,0.088,-1.114575,5.78805,6.9660006,5.4679503,-15.843751,19.2,1.8000001
16.26984126984127,0.5380375,0.088,-1.114575,5.7910504,7.077,5.373,-24.7875,15.056251,1.6125001
16.335978835978835,0.5124625,-0.2270125,-2.208525,5.5270505,7.1650505,1.0380001,-24.7875,15.056251,1.6125001
16.402116402116402,0.3592875,-0.61545,-3.1631875,5.5270505,7.1650505,1.0380001,-31.143751,7.3875003,1.3875
16.46825396825397,-0.2132625,-1.0209374,-3.041775,-0.35205,7.5600004,2.6260502,-31.143751,7.3875003,1.3875
16.534391534391535,0.03575,-0.99756247,-2.944975,-0.35205,7.5600004,2.6260502,-31.143751,7.3875003,1.3875
16.6005291005291,0.03575,-0.99756247,-2.944975,-4.368,8.941951,3.24795,-33.112503,-2.7,0.41250002
16.666666666666664,-0.119625,0.44233748,-2.878975,-4.5,7.5870004,3.1050003,-33.112503,-2.7,0.41250002
16.73280423280423,-0.407,0.82445,-2.5331626,-14.049001,2.9550002,4.2709503,-29.156252,-11.887501,-0.24375
16.798941798941797,0.3763375,0.3199625,-0.720775,-14.049001,2.9550002,4.2709503,-29.156252,-11.887501,-0.24375
16.865079365079364,0.3763375,0.3199625,-0.720775,-14.049001,2.9550002,4.2709503,-29.156252,-11.887501,-0.24375
16.93121693121693,0.452925,-0.003575,-0.8559375,-10.21695,3.726,1.5330001,-22.556252,-19.25625,-0.1875
16.997354497354497,0.06985,-0.80808747,-3.2269876,-7.122,-2.4120002,3.0540001,-22.556252,-19.25625,-0.1875
17.063492063492063,-0.0174625,-2.0021374,-3.0397124,-7.2730503,-5.29005,2.6569502,-12.843751,-21.65625,1.6125001
17.12962962962963,-0.22605,-2.1797874,-2.7033875,-7.2730503,-5.29005,2.6569502,-12.843751,-21.65625,1.6125001
17.195767195767196,-0.22605,-2.1797874,-2.7033875,-6.5070004,-5.1540003,3.1240501,-2.4562502,-20.587502,1.9125
17.26190476190476,0.010175,1.141525,-2.3926375,-0.045,-11.995951,2.6520002,-2.4562502,-20.587502,1.9125
17.328042328042326,-0.9103875,1.2309,-3.13555,-1.9350001,-9.74505,3.14295,6.6000004,-16.987501,2.5875
17.394179894179892,0.06875,1.7428125,-3.4793,-1.9350001,-9.74505,3.14295,6.6000004,-16.987501,2.5875
17.46031746031746,-1.1796125,-0.281325,-3.2792375,3.2710502,-8.392051,2.3740501,6.6000004,-16.987501,2.5875
17.526455026455025,0.681725,-0.543125,-2.864125,6.2980504,-7.5130506,1.74405,12.4875,-11.1,4.55625
17.59259259259259,0.1219625,-0.7272375,-2.111725,6.2980504,-7.5130506,1.74405,12.4875,-11.1,4.55625
17.658730158730158,0.0207625,0.44233748,-1.023,8.32695,-5.985,2.5440001,15.543751,-2.9437501,6.1125
17.724867724867725,-0.3964125,0.20185,-0.35475,8.32695,-5.985,2.5440001,15.543751,-2.9437501,6.1125
17.79100529100529,-0.3964125,0.20185,-0.35475,8.32695,-5.985,2.5440001,15.543751,-2.9437501,6.1125
17.857142857142858,0.3496625,0.847825,-1.5263875,8.526,-5.7259502,1.19595,14.812501,6.4125004,7.2000003
17.92328042328042,-0.1227875,0.03685,-0.48565,10.909051,-6.3229504,4.06995,14.812501,6.4125004,7.2000003
17.989417989417987,0.4167625,-0.7324625,-0.3441625,10.909051,-6.3229504,4.06995,10.556251,15.4125,8.15625
18.055555555555554,0.4167625,-0.7324625,-0.3441625,12.3,-4.53795,1.1550001,10.556251,15.4125,8.15625
18.12169312169312,-0.120725,-1.2912625,-2.54595,4.01805,1.3620001,0.156,10.556251,15.4125,8.15625
18.187830687830687,0.4624125,2.2632499,-3.7027376,4.164,4.39395,2.7880502,10.556251,15.4125,8.15625
18.253968253968253,-0.006875,1.9875625,-3.5985124,2.57205,5.754,3.2359502,3.3000002,21.956251,8.8125
18.32010582010582,-0.006875,1.9875625,-3.5985124,3.8119502,3.1579502,5.1400504,3.3000002,21.956251,8.8125
18.386243386243386,-0.1579875,1.21605,-2.9599624,1.6210501,7.5769506,5.3200502,-5.8875003,22.9125,6.6000004
18.452380952380953,-0.564575,-2.2554126,-2.6577375,-0.06405,10.377001,6.60795,-5.8875003,22.9125,6.6000004
18.51851851851852,-0.0356125,-0.2057,-1.8552874,0.02595,8.02005,4.5820503,-5.8875003,22.9125,6.6000004
18.584656084656082,0.9285375,0.5572875,-1.7340125,0.70605004,7.48605,4.08705,-14.156251,18.112501,6.3
18.65079365079365,0.9285375,0.5572875,-1.7340125,0.05205,7.314,4.0630503,-14.156251,18.112501,6.3
18.716931216931215,1.073325,0.56581247,-1.752025,-0.30105,7.6129503,3.8830502,-19.85625,10.012501,5.8875003
18.78306878306878,1.071125,-0.197175,-2.4586375,-2.04705,6.6139503,3.55995,-19.85625,10.012501,5.8875003
18.849206349206348,1.071125,-0.197175,-2.4586375,-18.02205,11.590951,1.6510501,-19.85625,10.012501,5.8875003
18.915343915343914,0.4805625,0.00495,-2.7396874,-7.0909505,8.25195,-0.29505002,-19.85625,10.012501,5.8875003
18.98148148148148,0.4805625,0.00495,-2.7396874,-12.150001,5.616,3.2749503,-20.04375,-0.05625,5.2875004
19.047619047619047,-0.7220125,0.5402375,-2.1170876,-10.935,5.6130004,5.394,-20.04375,-0.05625,5.2875004
19.113756613756614,0.0814,0.4147,-3.03655,-9.199051,4.42005,2.844,-20.04375,-0.05625,5.2875004
19.17989417989418,0.0814,0.4147,-3.03655,-11.496,0.60495,1.3950001,-15.900001,-9.1875,4.9125004
19.246031746031743,-0.2228875,0.372075,-4.4616,-7.59705,-1.1659501,2.29005,-15.900001,-9.1875,4.9125004
19.31216931216931,-0.8380625,-1.3294874,-3.5132625,-6.37305,-5.2519503,1.0330501,-15.900001,-9.1875,4.9125004
19.378306878306876,-0.8380625,-1.3294874,-3.5132625,-3.6420002,-4.8690004,1.6290001,-8.512501,-15.056251,4.55625
19.444444444444443,0.0847,-1.04225,-3.1312876,-1.3600501,-5.7910504,1.0519501,-8.512501,-15.056251,4.55625
19.51058201058201,0.5401,-0.903925,-2.2149875,-7.4460006,-9.58005,1.572,-8.512501,-15.056251,4.55625
19.576719576719576,0.5401,-0.903925,-2.2149875,-2.88105,-8.833051,3.4140003,-1.0125,-16.987501,3.9
19.642857142857142,0.3784,1.9173,-1.392325,-2.1409502,-10.938001,2.14695,-1.0125,-16.987501,3.9
19.70899470899471,-0.497475,2.06415,-2.425775,-2.9890501,-7.0219502,4.23,-1.0125,-16.987501,3.9
19.775132275132275,0.2464,2.270675,-2.8578,-1.26195,-8.50695,4.8289504,6.9,-15.3,4.2562504
19.841269841269842,0.2123,-0.082225,-1.4360499,-0.19395001,-9.0070505,0.46995002,6.9,-15.3,4.2562504
19.907407407407405,0.2123,-0.082225,-1.4360499,1.33605,-10.258051,0.9990001,6.9,-15.3,4.2562504
19.97354497354497,0.696575,-0.1962125,-2.931225,3.8479502,-9.15795,2.98005,6.9,-15.3,4.2562504
20.039682539682538,0.696575,-0.1962125,-2.931225,5.9440503,-7.7089505,2.7210002,12.843751,-9.3,7.0125003
20.105820105820104,0.6370375,0.9670375,-1.606275,10.34595,-7.5540004,3.1309502,12.843751,-9.3,7.0125003
20.17195767195767,0.3592875,0.07205,-1.4466375,11.03295,-8.24295,5.433,14.400001,-0.6,8.8125
20.238095238095237,-0.7123875,-1.7403375,-2.340525,11.710951,-7.9150505,1.4059501,14.400001,-0.6,8.8125
20.304232804232804,-0.7123875,-1.7403375,-2.340525,7.7809505,-2.2680001,4.7239504,14.400001,-0.6,8.8125
20.37037037037037,-1.10935,-1.0921625,-4.5370874,5.604,0.87600005,1.28205,12.7875,7.4437504,11.34375
20.436507936507937,1.464925,3.2060876,-3.438875,4.8520503,4.0680003,2.8909502,12.7875,7.4437504,11.34375
20.502645502645503,0.79667497,3.63715,-2.948275,3.7069502,4.3219504,3.80205,6.9,12.656251,11.043751
20.568783068783066,0.092125,1.6044875,-2.2778249,8.134951,3.66105,4.1659503,6.9,12.656251,11.043751
20.634920634920633,0.092125,1.6044875,-2.2778249,2.2770002,7.7779503,5.48505,6.9,12.656251,11.043751
20.7010582010582,0.322025,-1.7381375,-3.4920874,-2.907,10.32705,6.6850505,6.9,12.656251,11.043751
20.767195767195766,0.548625,-0.5218125,-2.34905,-1.0390501,7.9240503,3.8089502,-0.6,13.9875,9.1125
20.833333333333332,1.156375,0.5891875,-2.5023625,-1.5439501,7.5120006,3.627,-0.6,13.9875,9.1125
20.8994708994709,1.156375,0.5891875,-2.5023625,-0.90495,7.7040005,3.48795,-8.2875,10.743751,7.5000005
20.965608465608465,1.3872375,1.0660375,-2.2033,-0.93405,7.0020003,2.9989502,-8.2875,10.743751,7.5000005
21.03174603174603,1.3872375,1.0660375,-2.2033,-1.57095,5.71605,2.3689501,-8.2875,10.743751,7.5000005
21.097883597883598,0.9552125,0.6136625,-2.948275,-18.810001,8.058001,0.15900001,-12.712501,3.4125001,7.2000003
21.164021164021165,-0.3537875,-0.1610125,-2.1074624,-11.350051,1.6810501,2.8990502,-12.712501,3.4125001,7.2000003
21.230158730158728,-0.3537875,-0.1610125,-2.1074624,-12.970951,1.4170501,4.1059504,-13.312501,-4.74375,6.3
21.296296296296294,-0.580525,-0.26427498,-3.674,-6.6240005,-1.4389501,2.29005,-13.312501,-4.74375,6.3
21.36243386243386,-1.0008625,-1.69345,-3.5228875,-5.7330003,-6.6990004,0.73095006,-10.012501,-12.056251,4.8562503
21.428571428571427,-0.0419375,-1.3220625,-3.091825,-4.87605,-5.31405,1.7710501,-3.24375,-15.656251,2.9437501
21.494708994708994,0.6061,-1.2497375,-1.9925125,-1.57305,-5.2380004,2.058,-3.24375,-15.656251,2.9437501
21.56084656084656,0.6061,-1.2497375,-1.9925125,-17.256,-15.934051,3.8470502,-3.24375,-15.656251,2.9437501
21.626984126984127,0.417725,1.9525,-3.813425,1.9080001,-10.48005,6.0070505,-3.24375,-15.656251,2.9437501
21.693121693121693,0.1837,1.5948625,-3.320625,-0.10995001,-9.036,4.99695,4.2000003,-15.95625,0.24375
21.75925925925926,-1.0146124,-0.5388625,-2.423575,1.5370501,-8.575951,3.8830502,11.043751,-11.1,0.1875
21.825396825396822,-1.0146124,-0.5388625,-2.423575,2.28195,-8.203051,2.90805,11.043751,-11.1,0.1875
21.89153439153439,-0.9189125,-0.870925,-3.0866,2.28195,-8.203051,2.90805,11.043751,-11.1,0.1875
21.957671957671955,-1.181675,0.1634875,-1.6797,11.65095,-6.90705,-1.4310001,11.043751,-11.1,0.1875
22.023809523809522,1.1499125,0.1742125,-1.1433125,6.4420505,-5.8890004,0.78900003,14.400001,-3.35625,2.7
22.08994708994709,1.1499125,0.1742125,-1.1433125,6.4420505,-5.8890004,0.78900003,14.400001,-3.35625,2.7
22.156084656084655,-0.3037375,-0.557975,-2.7300625,13.737,-6.6340504,0.22305001,14.45625,5.45625,4.6125
22.22222222222222,0.0804375,0.4668125,-3.7591126,11.191051,-3.6379502,1.011,14.45625,5.45625,4.6125
22.288359788359788,0.9318375,2.2334125,-3.52825,5.6059504,3.7189503,2.532,14.45625,5.45625,4.6125
22.354497354497354,0.9318375,2.2334125,-3.52825,4.296,3.5440502,2.07495,9.356251,12.1125,5.34375
22.42063492063492,0.597575,1.6460125,-3.1312876,4.296,3.5440502,2.07495,9.356251,12.1125,5.34375
22.486772486772484,0.65505,0.0422125,-3.06955,10.918051,12.492001,5.8879504,1.9125,14.700001,3.24375
22.55291005291005,-0.479325,-1.8297125,-2.9907625,-1.88505,10.61205,7.044,1.9125,14.700001,3.24375
22.619047619047617,0.6413,-0.9560375,-1.8403,-2.9620502,10.66695,5.18295,1.9125,14.700001,3.24375
22.685185185185183,0.6413,-0.9560375,-1.8403,-0.036,8.226001,2.3070002,-5.64375,13.012501,2.8125
22.75132275132275,1.44045,-0.3696,-2.6948626,-0.036,8.226001,2.3070002,-5.64375,13.012501,2.8125
22.817460317460316,1.1308,0.1464375,-3.320625,-3.7930503,7.8240004,1.59105,-5.64375,13.012501,2.8125
22.883597883597883,0.33261248,0.0518375,-2.1234124,-9.096001,6.0490503,0.56805,-10.9875,6.7125,4.8
22.94973544973545,-0.143,0.022,-2.34795,-5.57805,2.193,1.02795,-10.9875,6.7125,4.8
23.015873015873016,-0.6699,0.4125,-2.0926125,-10.417951,8.98995,-0.09195001,-13.087501,-0.65625,6.7125
23.082010582010582,-0.054725,-0.411125,-4.010325,-10.20495,4.4539504,1.0900501,-13.087501,-0.65625,6.7125
23.148148148148145,-0.004675,-1.506175,-3.9474876,-8.20995,-0.44805002,2.7810001,-13.087501,-0.65625,6.7125
23.21428571428571,-0.004675,-1.506175,-3.9474876,-5.5750504,-5.046,3.10905,-10.387501,-7.55625,7.55625
23.28042328042328,-0.11,-1.2423126,-2.5969625,-6.33405,-4.05195,2.97795,-10.387501,-7.55625,7.55625
23.346560846560845,-0.0653125,-0.8251375,-2.3171499,-3.5419502,-4.01595,3.0349503,-4.55625,-11.2875,5.64375
23.41269841269841,-0.06215,1.01805,-3.1524625,-11.167951,-4.5739503,5.1210003,-4.55625,-11.2875,5.64375
23.478835978835978,-0.06215,1.01805,-3.1524625,-11.167951,-4.5739503,5.1210003,-4.55625,-11.2875,5.64375
23.544973544973544,-0.135575,0.7467625,-1.1496375,-1.281,-9.8220005,3.90405,1.8000001,-12.187501,4.3875003
23.61111111111111,0.68488747,-0.1780625,-1.4774375,-2.1769502,-9.52005,5.5810504,1.8000001,-12.187501,4.3875003
23.677248677248677,0.3741375,0.3614875,-1.7733375,-1.6690501,-7.7520003,5.53095,9.900001,-9.7875,3.54375
23.743386243386244,-0.6293375,0.5583875,-2.355375,0.27705002,-8.896951,3.4660501,9.900001,-9.7875,3.54375
23.809523809523807,-0.6293375,0.5583875,-2.355375,0.246,-7.7400002,5.71995,9.900001,-9.7875,3.54375
23.875661375661373,-0.78265,-0.167475,-2.800325,0.246,-7.7400002,5.71995,16.0125,-3.05625,5.2875004
23.94179894179894,-1.330725,0.7722,-2.128775,6.801,-5.8819504,5.4559503,16.0125,-3.05625,5.2875004
24.007936507936506,-1.330725,0.7722,-2.128775,6.801,-5.8819504,5.4559503,16.0125,-3.05625,5.2875004
24.074074074074073,-0.1068375,0.391325,-2.0989375,5.00505,-5.274,3.2269502,17.5125,6.1125,6.3
24.14021164021164,-0.233475,-0.1684375,-1.5126375,9.061951,-5.44605,5.9329505,17.5125,6.1125,6.3
24.206349206349206,-1.3976874,0.356125,-2.7471125,11.182051,-9.86205,1.2750001,17.5125,6.1125,6.3
24.272486772486772,-1.3976874,0.356125,-2.7471125,10.64805,-2.874,3.6700501,14.587501,15.056251,6.4125004
24.33862433862434,1.0019625,0.617925,-2.3544126,6.46395,1.51995,4.6399503,14.587501,15.056251,6.4125004
24.404761904761905,2.3535874,2.0546625,-2.31605,6.61005,1.5970501,3.6030002,7.6125,21.1875,5.34375
24.470899470899468,1.1105875,1.6119125,-1.9393,6.9229503,1.7520001,3.07095,7.6125,21.1875,5.34375
24.537037037037035,1.1105875,1.6119125,-1.9393,15.271951,0.40605003,3.387,7.6125,21.1875,5.34375
24.6031746031746,0.39655,-1.27105,-3.273875,4.60995,7.9939504,5.2650003,7.6125,21.1875,5.34375
24.669312169312168,-0.381425,-0.4015,-2.05315,3.0990002,8.089951,3.282,-10.6875,17.34375,4.9125004
24.735449735449734,-0.381425,-0.4015,-2.05315,2.80605,7.48395,2.05995,-10.6875,17.34375,4.9125004
24.8015873015873,0.5795625,0.98725,-3.191925,2.80605,7.48395,2.05995,-10.6875,17.34375,4.9125004
24.867724867724867,1.0030625,0.5636125,-3.4005125,-1.9759501,7.3180504,2.427,-10.6875,17.34375,4.9125004
24.933862433862434,0.2443375,-0.478225,-3.0545626,-9.357,5.1390004,-0.63795,-15.712501,8.887501,5.5875
25.0,-0.6879125,-0.67925,-1.4806,-8.36295,7.9600506,1.761,-17.1,0.54375005,6.7875004
25.066137566137566,-0.6879125,-0.67925,-1.4806,-11.40495,8.113951,3.8809502,-17.1,0.54375005,6.7875004
25.13227513227513,0.3518625,-0.2674375,-2.274525,-11.40495,8.113951,3.8809502,-17.1,0.54375005,6.7875004
25.198412698412696,0.158125,-0.5687,-4.0997,-6.6049504,0.40905002,-0.13305001,-17.1,0.54375005,6.7875004
25.264550264550262,-1.200925,-2.1085625,-3.6304126,-7.3740005,-6.70095,1.6819501,-14.75625,-7.2000003,7.8
25.33068783068783,-0.20693749,-0.560175,-2.9099126,-8.088,-5.06295,1.12605,-14.75625,-7.2000003,7.8
25.396825396825395,-0.20693749,-0.560175,-2.9099126,-6.0930004,-3.8100002,2.6899502,-8.212501,-11.887501,7.2000003
25.462962962962962,-0.4261125,0.46145,-2.1245124,-6.0930004,-3.8100002,2.6899502,-8.212501,-11.887501,7.2000003
25.52910052910053,0.779625,1.8503375,-1.263625,-4.617,-6.603,5.9830503,-8.212501,-11.887501,7.2000003
25.595238095238095,0.1815,0.848925,-3.3419375,-4.0090504,-11.29695,1.644,-0.3,-13.9125,7.0875
25.66137566137566,0.1815,0.848925,-3.3419375,-4.0090504,-11.29695,1.644,-0.3,-13.9125,7.0875
25.727513227513224,0.5135625,0.3273875,-2.1181874,-4.60305,-8.890051,0.99705005,7.55625,-12.0,9.1125
25.79365079365079,0.0644875,-0.0215875,-3.5292125,-2.08605,-10.1980505,1.4500501,7.55625,-12.0,9.1125
25.859788359788357,0.0240625,-0.084425,-3.634675,4.224,-8.20005,1.3950001,7.55625,-12.0,9.1125
25.925925925925924,0.0240625,-0.084425,-3.634675,12.097051,-3.8080502,0.70005006,12.4125,-6.3562503,11.700001
25.99206349206349,0.270875,0.080575,-1.4295875,12.097051,-3.8080502,0.70005006,12.4125,-6.3562503,11.700001
26.058201058201057,0.49225,0.407275,-1.95635,7.5390005,-9.3810005,3.08505,12.4125,-6.3562503,11.700001
26.124338624338623,-0.5740625,-1.17205,-3.62615,12.087001,-6.4830003,0.86295,13.9875,1.5562501,13.25625
26.19047619047619,0.7178875,0.472175,-3.846425,5.721,-0.08595,2.6209502,13.9875,1.5562501,13.25625
26.256613756613756,1.3542374,3.057175,-3.2462375,6.5620503,4.485,2.0650501,10.743751,8.45625,14.400001
26.322751322751323,1.3297625,3.5402124,-3.2025125,8.3560505,4.8250504,2.6110501,10.743751,8.45625,14.400001
26.388888888888886,0.7805875,2.042975,-2.5320625,4.22205,4.497,4.098,10.743751,8.45625,14.400001
26.455026455026452,0.6188875,-0.4313375,-3.4271874,9.89805,6.1519504,3.41595,4.14375,11.64375,11.15625
26.52116402116402,-0.5922125,-1.2805375,-2.7599,-1.044,5.616,3.7900503,4.14375,11.64375,11.15625
26.587301587301585,0.704,-1.0570999,-2.0266125,-1.3740001,9.57705,6.6250505,-3.05625,10.9875,8.212501
26.65343915343915,1.0445875,-0.2195875,-1.7095375,-1.5970501,10.83705,5.20695,-3.05625,10.9875,8.212501
26.719576719576718,1.0445875,-0.2195875,-1.7095375,-1.5970501,10.83705,5.20695,-3.05625,10.9875,8.212501
26.785714285714285,1.7895625,0.7222875,-2.241525,-1.24995,8.51595,3.7560003,-9.95625,6.1125,7.2562504
26.85185185185185,1.450075,0.1401125,-3.535675,-3.7740002,5.52495,0.85800004,-9.95625,6.1125,7.2562504
26.917989417989418,0.205975,0.1890625,-1.622225,-12.375001,3.7789502,-4.20195,-13.500001,-0.54375005,7.2562504
26.984126984126984,0.4475625,-0.69629997,-2.3852124,-8.646001,6.8299503,5.6340003,-13.500001,-0.54375005,7.2562504
27.050264550264547,0.4475625,-0.69629997,-2.3852124,-10.744051,3.0700502,1.4569501,-13.500001,-0.54375005,7.2562504
27.116402116402114,0.0059125,-1.1316249,-3.243075,-10.744051,3.0700502,1.4569501,-13.500001,-0.54375005,7.2562504
27.18253968253968,-1.1807125,-1.8456625,-3.8071,-6.6510005,-4.026,1.7590501,-12.7875,-7.55625,6.1875005
27.248677248677247,-0.3708375,-1.8712375,-3.5495625,-5.17995,-6.08295,2.9299502,-12.7875,-7.55625,6.1875005
27.314814814814813,-0.3708375,-1.8712375,-3.5495625,-5.2330503,-5.8360505,3.3940501,-7.5000005,-12.187501,3.4875002
27.38095238095238,0.270875,-1.1092125,-2.1979375,-5.2330503,-5.8360505,3.3940501,-7.5000005,-12.187501,3.4875002
27.447089947089946,0.76147497,0.8190875,-2.1649375,-12.50205,-7.46295,6.69495,-7.5000005,-12.187501,3.4875002
27.513227513227513,-0.416625,1.96735,-3.10255,-2.4139502,-8.86095,4.39095,-0.84375006,-13.687501,0.41250002
27.57936507936508,-0.416625,1.96735,-3.10255,-2.4139502,-8.86095,4.39095,-0.84375006,-13.687501,0.41250002
27.645502645502646,-0.68365,0.406175,-1.79245,-0.83805007,-9.496051,4.1940002,6.4875,-10.9875,-0.71250004
27.71164021164021,-0.4357375,-0.077,-2.4959,0.26295,-9.93,2.5510502,6.4875,-10.9875,-0.71250004
27.777777777777775,-0.4357375,-0.077,-2.4959,2.00895,-8.91195,4.4050503,6.4875,-10.9875,-0.71250004
27.84391534391534,-0.8210125,-0.2770625,-2.9844375,2.00895,-8.91195,4.4050503,6.4875,-10.9875,-0.71250004
27.910052910052908,-0.661375,0.07315,-2.079825,5.3760004,-5.4030004,4.32105,11.700001,-4.8,2.6437502
27.976190476190474,-0.661375,0.07315,-2.079825,5.3760004,-5.4030004,4.32105,11.700001,-4.8,2.6437502
28.04232804232804,0.2091375,0.4615875,-1.386,6.2430005,-5.68305,1.9290001,13.743751,3.6000001,5.5875
28.108465608465607,0.3400375,0.4338125,-1.5934875,6.89895,-3.9109502,0.18300001,13.743751,3.6000001,5.5875
28.174603174603174,0.3400375,0.4338125,-1.5934875,10.137,-6.4420505,2.2060502,13.743751,3.6000001,5.5875
28.24074074074074,-0.236775,0.62865,-3.43035,12.349951,-5.31405,4.6849504,13.743751,3.6000001,5.5875
28.306878306878307,1.2211375,0.880825,-4.60845,10.54695,0.57900006,6.6400504,12.6,12.6,6.95625
28.37301587301587,0.9977,1.5928,-3.5123,4.8559504,2.6170502,3.6870003,12.6,12.6,6.95625
28.439153439153436,0.9977,1.5928,-3.5123,4.42995,3.7830002,3.3940501,6.4875,18.487501,5.4
28.505291005291003,1.3967249,0.847825,-3.1090124,4.42995,3.7830002,3.3940501,6.4875,18.487501,5.4
28.57142857142857,-0.7965375,-1.7488625,-3.276075,13.420951,7.3639503,10.10805,6.4875,18.487501,5.4
28.637566137566136,0.9125875,-1.737175,-2.340525,0.37095,10.99995,5.23395,-1.5562501,19.743752,3.4125001
28.703703703703702,0.009075,-1.30075,-1.6478,2.3749502,8.97795,4.5610504,-1.5562501,19.743752,3.4125001
28.76984126984127,0.9604375,-0.05995,-2.5097876,3.0310502,9.26595,3.38505,-1.5562501,19.743752,3.4125001
28.835978835978835,0.9604375,-0.05995,-2.5097876,1.9230001,8.3869505,2.0359502,-10.012501,15.4125,4.3875003
28.902116402116402,0.5614125,-0.1546875,-3.0419126,1.9230001,8.3869505,2.0359502,-10.012501,15.4125,4.3875003
28.96825396825397,-0.5944125,-0.9911,-2.684275,-4.83795,7.49805,2.7640502,-10.012501,15.4125,4.3875003
29.03439153439153,-0.4772625,-0.69629997,-1.378575,-13.807051,7.3740005,2.4840002,-14.700001,7.6125,6.3
29.100529100529098,-0.4772625,-0.69629997,-1.378575,-6.5140505,8.33895,3.05205,-14.700001,7.6125,6.3
29.166666666666664,-1.2413499,1.026575,-1.378575,-6.5140505,8.33895,3.05205,-16.143751,-1.6125001,6.0
29.23280423280423,-0.2963125,1.1213125,-3.3930874,-8.998051,5.2660503,5.4900002,-16.143751,-1.6125001,6.0
29.298941798941797,-0.2165625,0.521125,-2.8908,-3.2710502,-3.0250502,1.8139501,-16.143751,-1.6125001,6.0
29.365079365079364,0.2666125,0.88715,-0.14093749,-2.325,-5.6860504,1.77795,-5.15625,-11.64375,3.3000002
29.43121693121693,0.39325,2.09935,-2.4767876,-3.55905,-11.92905,1.9260001,-5.15625,-11.64375,3.3000002
29.497354497354497,0.39325,2.09935,-2.4767876,-2.3130002,-9.86505,2.69295,2.04375,-12.7875,3.7125
29.563492063492063,0.98285,0.487025,-1.74625,-2.3130002,-9.86505,2.69295,2.04375,-12.7875,3.7125
29.629629629629626,0.6912125,-0.43353748,-2.933975,-1.659,-9.795,2.6419501,2.04375,-12.7875,3.7125
29.695767195767193,0.6912125,-0.43353748,-2.933975,0.47595003,-9.70005,4.2330003,9.543751,-9.3,5.15625
29.76190476190476,0.2740375,-0.250525,-2.738175,3.58695,-8.3539505,5.241,9.543751,-9.3,5.15625
29.828042328042326,-0.2506625,-0.4728625,-2.3571625,8.08695,-3.2400002,5.8660502,13.14375,-2.1000001,6.9
29.894179894179892,0.4635125,-0.5665,-3.1648376,8.32695,-9.328051,5.20695,13.14375,-2.1000001,6.9
29.96031746031746,0.4635125,-0.5665,-3.1648376,10.609051,-4.0230002,2.4460502,13.14375,-2.1000001,6.9
30.026455026455025,0.352825,-1.3838,-4.2620873,10.609051,-4.0230002,2.4460502,13.087501,5.5125003,7.6125
30.09259259259259,0.450725,-0.20253749,-4.1289873,8.48295,-0.49305,1.0380001,13.087501,5.5125003,7.6125
30.158730158730158,0.6571125,1.2585375,-3.366,5.532,3.3280501,0.64005005,13.087501,5.5125003,7.6125
30.224867724867725,-0.27719998,1.3490125,-2.76045,7.5510006,4.176,1.11,8.15625,10.5,7.14375
30.291005291005288,-0.4954125,0.8276125,-1.869725,4.308,5.043,2.7210002,8.15625,10.5,7.14375
30.357142857142854,-0.4954125,0.8276125,-1.869725,3.5440502,7.3710003,4.6129503,8.15625,10.5,7.14375
30.42328042328042,-0.270875,0.3284875,-0.01375,3.5440502,7.3710003,4.6129503,8.15625,10.5,7.14375
30.489417989417987,0.06435,-0.3185875,-2.7163124,5.7619505,9.687,5.8350005,1.9875001,13.9875,5.9437504
30.555555555555554,0.6274125,-0.8261,-3.5751374,2.49495,7.3830004,5.136,1.9875001,13.9875,5.9437504
30.62169312169312,0.6274125,-0.8261,-3.5751374,0.83295006,8.727,3.3990002,-6.4875,12.712501,5.2875004
30.687830687830687,1.08075,0.38279998,-4.042225,0.83295006,8.727,3.3990002,-6.4875,12.712501,5.2875004
30.753968253968253,1.1477125,1.569425,-3.3037124,-5.21595,9.517051,1.7659501,-6.4875,12.712501,5.2875004
30.82010582010582,0.384725,-0.2908125,-1.3828375,-10.67895,5.40495,2.7930002,-12.543751,5.5125003,5.9437504
30.886243386243386,1.1424875,0.0911625,-1.1752125,-9.508051,4.08795,1.215,-15.187501,-2.4562502,4.55625
30.95238095238095,1.1424875,0.0911625,-1.1752125,-6.93795,1.9969501,2.6500502,-15.187501,-2.4562502,4.55625
31.018518518518515,0.8454875,-0.4057625,-1.526525,-6.93795,1.9969501,2.6500502,-15.187501,-2.4562502,4.55625
31.084656084656082,0.6689375,-0.02695,-1.6350125,-7.8529506,0.22395001,0.46500003,-14.812501,-11.212501,3.7875001
31.15079365079365,0.6689375,-0.02695,-1.6350125,-7.8529506,0.22395001,0.46500003,-14.812501,-11.212501,3.7875001
31.216931216931215,-0.2633125,1.0990375,-0.9922,-10.37205,0.77805007,-0.48195,-9.7875,-19.3875,3.6562502
31.28306878306878,0.22935,0.732875,-1.688225,-9.949051,-0.51000005,-1.1890501,-9.7875,-19.3875,3.6562502
31.349206349206348,0.3581875,-0.69107497,-1.2326875,-11.328,-1.8420001,0.65895003,-9.7875,-19.3875,3.6562502
31.415343915343914,-0.023925,0.2849,-2.422475,-10.53495,-1.75995,0.786,-9.7875,-19.3875,3.6562502
31.48148148148148,0.19855,0.2508,-1.5552624,-8.51595,-4.75605,0.123,-1.8000001,-24.656252,3.7875001
31.547619047619047,-0.0814,-0.444125,-2.210725,-6.9979506,-5.709,0.40500003,-1.8000001,-24.656252,3.7875001
31.61375661375661,-0.2985125,-1.474275,-2.4352624,-5.06505,-6.9570003,1.8400501,8.15625,-24.4125,5.2125
31.679894179894177,0.1155,-1.7870874,-2.0713,-5.05095,-7.0630503,1.89495,8.15625,-24.4125,5.2125
31.746031746031743,-0.1463,-1.33485,-0.9816125,-4.9429502,-9.027,2.094,8.15625,-24.4125,5.2125
31.81216931216931,0.23045,-0.1610125,0.2220625,-4.215,-8.50695,2.1370502,17.643751,-20.75625,6.6000004
31.878306878306876,0.2453,-0.20253749,-0.3111625,-3.7240503,-9.4480505,3.0330002,17.643751,-20.75625,6.6000004
31.944444444444443,0.2453,-0.20253749,-0.3111625,-2.565,-9.11505,2.25405,26.1,-14.700001,7.0125003
32.010582010582006,0.3730375,0.1551,-0.73039997,-2.565,-9.11505,2.25405,26.1,-14.700001,7.0125003
32.076719576719576,-0.480425,-0.148225,-3.6474624,1.07505,-9.040951,1.30095,26.1,-14.700001,7.0125003
32.14285714285714,-0.302775,0.488125,-2.5598376,-5.3640003,-5.44605,1.0159501,30.487501,-6.0,6.8437505
32.20899470899471,-0.302775,0.488125,-2.5598376,-5.3640003,-5.44605,1.0159501,30.487501,-6.0,6.8437505
32.27513227513227,0.7508875,-0.804925,-0.5698,3.8820002,-16.04595,-0.12495001,30.900002,4.0875,7.14375
32.34126984126984,1.2307625,-0.92509997,-2.735425,3.42195,-9.240001,2.5510502,30.900002,4.0875,7.14375
32.407407407407405,1.2307625,-0.92509997,-2.735425,6.15495,-7.5490503,2.7190502,30.900002,4.0875,7.14375
32.473544973544975,0.4857875,-0.3334375,-1.3316875,8.01795,-7.458,3.7030501,30.900002,4.0875,7.14375
32.53968253968254,1.0307,0.9191875,-1.983025,7.0720506,-7.1080503,4.1680503,28.687502,13.500001,6.24375
32.6058201058201,1.0307,0.9191875,-1.983025,7.0720506,-7.1080503,4.1680503,28.687502,13.500001,6.24375
32.67195767195767,0.157025,0.2732125,-0.656975,9.60105,-6.6580505,2.5900502,23.75625,21.65625,4.0875
32.738095238095234,0.353925,-1.3178,-0.7442875,8.05395,-4.53795,4.2180004,23.75625,21.65625,4.0875
32.804232804232804,-0.5698,-0.2451625,-1.767975,7.5390005,-2.9170501,1.14795,23.75625,21.65625,4.0875
32.87037037037037,-0.5698,-0.2451625,-1.767975,7.3879504,-0.96300006,1.2079501,16.6875,28.0125,1.85625
32.93650793650794,-0.8284375,0.8424625,-1.573275,7.3879504,-0.96300006,1.2079501,16.6875,28.0125,1.85625
33.0026455026455,-1.281775,1.2863125,-1.76385,14.09895,-2.9550002,2.946,16.6875,28.0125,1.85625
33.06878306878307,-1.332925,2.255825,-1.9329749,7.6510506,1.302,2.046,8.400001,31.3875,-0.7875
33.13492063492063,-1.1647625,1.3660625,-0.348425,6.6190505,0.36105,5.3629503,8.400001,31.3875,-0.7875
33.2010582010582,-0.4676375,-0.4739625,0.8094625,6.9349504,-0.56505,5.5090504,-0.35625002,32.4,-2.7
33.267195767195766,0.5836875,-0.3972375,-0.176,9.262951,-0.093,8.91705,-0.35625002,32.4,-2.7
33.33333333333333,1.3158749,-0.9070875,-0.3185875,9.74205,0.66300005,6.6850505,-0.35625002,32.4,-2.7
33.3994708994709,1.3158749,-0.9070875,-0.3185875,8.35995,0.49695003,8.87895,-8.8125,32.756252,-3.9
33.46560846560846,0.8987,-0.8718875,-2.90565,7.26105,2.835,4.5199504,-8.8125,32.756252,-3.9
33.53174603174603,0.9763875,-1.95525,-5.0139375,10.615951,4.03695,3.4830003,-17.8125,29.5125,-4.8
33.597883597883595,0.88275,0.355025,-1.968725,-1.8199501,8.905951,3.0730503,-17.8125,29.5125,-4.8
33.664021164021165,0.88275,0.355025,-1.968725,7.0000505,8.334001,1.2529501,-17.8125,29.5125,-4.8
33.73015873015873,1.1626999,1.4607999,-1.528175,7.0000505,8.334001,1.2529501,-17.8125,29.5125,-4.8
33.7962962962963,-1.054075,-0.283525,-1.1397375,2.052,7.26105,2.403,-24.6,22.087502,-5.8875003
33.86243386243386,-0.2506625,-0.8518125,0.385275,-1.29495,10.165951,2.8530002,-24.6,22.087502,-5.8875003
33.92857142857142,-0.2506625,-0.8518125,0.385275,1.56105,10.161,3.5719502,-29.156252,13.687501,-6.4125004
33.99470899470899,0.1505625,0.0070125,-0.236225,1.56105,10.161,3.5719502,-29.156252,13.687501,-6.4125004
34.06084656084656,0.09845,0.8669375,-1.15665,0.75405,9.804001,2.77395,-29.156252,13.687501,-6.4125004
34.12698412698413,-0.628375,-0.362175,-0.2937,1.95105,7.90005,1.8259501,-31.987501,5.0437503,-6.4875
34.19312169312169,-0.023925,-0.150425,0.744975,-2.1000001,10.22595,4.6660504,-31.987501,5.0437503,-6.4875
34.25925925925926,1.0082875,0.3774375,-0.96195,2.6239502,9.603001,2.45295,-31.987501,5.0437503,-6.4875
34.32539682539682,1.0082875,0.3774375,-0.96195,0.66300005,8.43,1.7149501,-33.05625,-3.1875002,-6.9
34.39153439153439,1.43825,1.60765,-1.5142875,0.66300005,8.43,1.7149501,-33.05625,-3.1875002,-6.9
34.457671957671955,0.2655125,0.9648375,-1.05985,-2.124,7.8910503,0.04905,-33.05625,-3.1875002,-6.9
34.52380952380952,-0.924275,-3.3452375,-0.412775,-5.6569505,10.621051,0.93705004,-31.800001,-11.2875,-7.4437504
34.58994708994709,-0.924275,-3.3452375,-0.412775,-5.6569505,10.621051,0.93705004,-31.800001,-11.2875,-7.4437504
34.65608465608465,-0.0771375,-0.364375,-0.726825,-5.03205,9.84,2.2090502,-29.587502,-19.3875,-7.14375
34.72222222222222,0.449625,0.10395,-1.183325,-3.86505,8.65995,2.082,-29.587502,-19.3875,-7.14375
34.788359788359784,0.449625,0.10395,-1.183325,-4.11705,8.90205,3.9430501,-29.587502,-19.3875,-7.14375
34.854497354497354,1.5841374,-0.3408625,-2.1198375,-6.8280005,6.0679502,1.3609501,-29.587502,-19.3875,-7.14375
34.92063492063492,1.5841374,-0.3408625,-2.1198375,-6.8280005,6.0679502,1.3609501,-26.1,-27.7875,-6.1875005
34.98677248677249,1.3063875,-0.17173749,-1.738825,-8.253,5.019,-0.22605,-19.5,-32.7,-4.4437504
35.05291005291005,0.80079997,-0.1450625,-1.4994375,-8.257951,3.2950501,-0.786,-19.5,-32.7,-4.4437504
35.11904761904762,0.0111375,-0.6133875,-1.1045375,-7.7710505,2.8489501,-0.60405004,-19.5,-32.7,-4.4437504
35.18518518518518,-0.465575,-0.642125,-0.658625,-9.549001,1.0200001,-1.04295,-19.5,-32.7,-4.4437504
35.251322751322746,-0.00165,0.2784375,-0.7214625,-11.158051,3.38595,1.263,-11.887501,-34.443752,-1.9125
35.317460317460316,-1.023275,0.9733625,-2.1049874,-11.467051,1.47,-1.11705,-11.887501,-34.443752,-1.9125
35.38359788359788,-0.7689,-0.1610125,-3.0999374,-9.022051,-1.4490001,-0.09405001,-4.3125,-34.256252,0.41250002
35.44973544973545,-0.7689,-0.1610125,-3.0999374,-7.8960004,-3.5830503,-1.00905,-4.3125,-34.256252,0.41250002
35.51587301587301,-0.5911125,-0.88261247,-3.25215,-7.8310504,-5.4870005,0.11295001,-4.3125,-34.256252,0.41250002
35.58201058201058,0.1090375,-0.133375,-2.76155,-6.0349503,-6.0259504,-0.25695002,4.6875,-31.087502,2.4562502
35.648148148148145,0.3240875,-0.0578875,-2.3178375,-4.96005,-7.2640505,0.86295,4.6875,-31.087502,2.4562502
35.714285714285715,0.3240875,-0.0578875,-2.3178375,-4.4110503,-8.677051,0.753,13.012501,-24.900002,4.4437504
35.78042328042328,0.7954375,0.028325,-1.9283,-4.4110503,-8.677051,0.753,13.012501,-24.900002,4.4437504
35.84656084656084,0.2134,0.5137,-0.887425,-1.6519501,-11.412001,1.69605,13.012501,-24.900002,4.4437504
35.91269841269841,0.22935,1.4320625,-0.5831375,0.43005002,-10.044001,2.41995,19.2,-16.612501,6.1125
35.978835978835974,0.22935,1.4320625,-0.5831375,-0.67995006,-8.92395,2.48895,19.2,-16.612501,6.1125
36.044973544973544,-0.026125,1.961025,0.1544125,-0.67995006,-8.92395,2.48895,19.2,-16.612501,6.1125
36.11111111111111,0.9849125,1.141525,0.2182125,1.626,-8.59305,3.9160502,24.112501,-7.8562503,8.34375
36.17724867724868,0.794475,0.436975,0.6183375,-1.623,-9.073951,2.97,24.112501,-7.8562503,8.34375
36.24338624338624,0.6241125,0.6892875,0.237325,-2.93805,-8.2240505,5.2860003,27.900002,1.6125001,9.1875
36.30952380952381,0.6241125,0.6892875,0.237325,-3.729,-9.618,4.5370502,27.900002,1.6125001,9.1875
36.37566137566137,0.022825,0.82445,-0.7544625,-3.729,-9.618,4.5370502,27.900002,1.6125001,9.1875
36.44179894179894,0.16445,-0.0664125,-0.825825,0.21300001,-9.86205,5.5210505,29.94375,10.25625,8.8125
36.507936507936506,-0.4411,-1.1859375,-2.0059874,0.0,-9.26805,4.89405,29.94375,10.25625,8.8125
36.57407407407407,-0.4411,-1.1859375,-2.0059874,3.6349502,-7.5109506,6.0670505,29.212502,18.7875,7.5000005
36.64021164021164,-0.268675,-1.915925,-2.1921625,3.6349502,-7.5109506,6.0670505,29.212502,18.7875,7.5000005
36.7063492063492,-0.49225,-1.0784125,-1.7612375,2.3389502,-8.257951,4.4770503,29.212502,18.7875,7.5000005
36.77248677248677,-0.49225,-1.0784125,-1.7612375,3.7380002,-7.4790006,2.709,25.9125,27.056252,6.5437503
36.838624338624335,-0.2677125,-0.4962375,-2.998875,5.1439505,-6.4540505,2.56095,25.9125,27.056252,6.5437503
36.904761904761905,0.1590875,-0.217525,-3.38415,6.6000004,-4.0810504,2.1730502,18.243752,32.100002,6.24375
36.97089947089947,0.32725,0.3018125,-1.348325,12.98805,-0.09105001,1.9210501,18.243752,32.100002,6.24375
37.03703703703704,0.32725,0.3018125,-1.348325,8.752951,-1.9110001,3.8160002,18.243752,32.100002,6.24375
37.1031746031746,-0.5198875,-0.1057375,-1.477025,8.752951,-1.9110001,3.8160002,18.243752,32.100002,6.24375
37.169312169312164,-0.794475,-1.3135375,-0.80025,11.031,-1.9540501,3.8950503,9.543751,33.24375,5.8125
37.235449735449734,-0.696575,-1.1316249,-2.4454374,12.267,-0.57000005,0.82695,9.543751,33.24375,5.8125
37.3015873015873,0.498575,0.4338125,-2.7253876,5.7379503,4.86105,1.5619501,9.543751,33.24375,5.8125
37.36772486772487,1.1232375,1.8396125,-2.5199625,6.9640503,5.10795,1.3990501,1.0875001,30.843752,6.7875004
37.43386243386243,0.95507497,2.5356374,-3.2054,7.6510506,4.7250004,1.8690001,1.0875001,30.843752,6.7875004
37.5,0.95507497,2.5356374,-3.2054,7.6510506,4.7250004,1.8690001,1.0875001,30.843752,6.7875004
37.56613756613756,0.3207875,0.3518625,-2.2156749,4.63605,8.22105,4.479,-7.2562504,25.743752,4.3125
37.63227513227513,0.892375,-0.835725,-1.3908125,-1.4389501,9.91905,2.73105,-7.2562504,25.743752,4.3125
37.698412698412696,0.892375,-0.835725,-1.3908125,-0.24900001,10.273951,2.02395,-14.64375,18.35625,2.5125
37.764550264550266,0.0484,0.1230625,-0.5245625,-0.24900001,10.273951,2.02395,-14.64375,18.35625,2.5125
37.83068783068783,-0.58905,-0.003575,-1.234475,0.31800002,10.97805,0.93705004,-14.64375,18.35625,2.5125
37.89682539682539,0.1804,-0.9081875,-2.1379874,-1.125,8.66895,2.259,-21.300001,10.387501,0.6
37.96296296296296,0.2996125,0.259325,-1.4058,-5.27295,9.783,2.80005,-21.300001,10.387501,0.6
38.029100529100525,0.2996125,0.259325,-1.4058,-4.61205,9.09795,1.3950001,-25.087502,0.71250004,-0.54375005
38.095238095238095,0.42405,0.862675,-0.9449,-4.61205,9.09795,1.3950001,-25.087502,0.71250004,-0.54375005
38.16137566137566,0.794475,-0.4824875,-0.7800375,-5.853,9.225,2.832,-25.087502,0.71250004,-0.54375005
38.22751322751323,0.3315125,-1.7978125,-2.07515,-4.4950504,4.87305,1.23405,-25.087502,0.71250004,-0.54375005
38.29365079365079,-0.058025,-1.6754375,-2.4135375,-6.84495,5.33505,0.49395,-26.156252,-9.543751,-1.0125
38.35978835978836,-0.058025,-1.6754375,-2.4135375,-10.167001,3.31605,2.14395,-22.44375,-19.087502,-1.25625
38.425925925925924,-0.1516625,-0.803825,-2.4646876,-10.167001,3.31605,2.14395,-22.44375,-19.087502,-1.25625
38.49206349206349,-0.13255,-0.199375,-2.7094374,-5.34105,1.077,4.2330003,-22.44375,-19.087502,-1.25625
38.55820105820106,0.2325125,0.7104625,-2.1847374,-13.210951,-0.9289501,3.10905,-14.887501,-25.9125,-1.3125
38.62433862433862,0.2325125,0.7104625,-2.1847374,-7.8150005,-4.914,2.0080502,-14.887501,-25.9125,-1.3125
38.69047619047619,-0.6444625,0.0985875,-1.38765,-8.06595,-5.7910504,1.3470001,-14.887501,-25.9125,-1.3125
38.75661375661375,-1.0488499,-0.5038,-1.120625,-6.3630004,-5.8680005,1.20105,-5.4,-28.44375,-1.7437501
38.82275132275132,-0.435875,-0.099275,-0.872575,-7.4269505,-8.272051,3.081,-5.4,-28.44375,-1.7437501
38.888888888888886,-0.926475,0.23485,-1.511125,-6.9090004,-9.175051,2.388,-5.4,-28.44375,-1.7437501
38.955026455026456,-0.3826625,0.0644875,-1.7931374,-4.87395,-9.637051,-0.17805001,13.687501,-23.587502,2.1000001
39.02116402116402,-0.3826625,0.0644875,-1.7931374,-1.60905,-7.8700504,1.3920001,13.687501,-23.587502,2.1000001
39.08730158730158,0.5262125,1.6097125,-2.8307126,0.90495,-10.71,2.97495,13.687501,-23.587502,2.1000001
39.15343915343915,1.4117125,1.9173,-3.1084626,0.90495,-10.71,2.97495,21.056252,-16.743752,4.2562504
39.219576719576715,0.695475,0.159225,-2.949925,2.66295,-9.73995,4.78305,21.056252,-16.743752,4.2562504
39.285714285714285,0.695475,0.159225,-2.949925,5.92005,-5.5420504,4.36905,21.056252,-16.743752,4.2562504
39.35185185185185,0.7678,-0.9389875,-1.7835125,5.5410004,-5.9269505,3.8779502,24.243752,-6.7875004,6.1875005
39.41798941798942,0.234575,-0.8559375,-1.3600125,6.111,-6.6910505,3.897,24.243752,-6.7875004,6.1875005
39.48412698412698,0.0495,0.187,0.3597,6.111,-6.6910505,3.897,24.656252,3.3000002,6.95625
39.55026455026455,0.0495,0.187,0.3597,5.5200005,-9.118051,1.26495,24.656252,3.3000002,6.95625
39.616402116402114,-0.18259999,0.72008747,-0.2319625,7.9240503,-6.9409504,2.3479502,24.656252,3.3000002,6.95625
39.682539682539684,0.0196625,0.1720125,-0.8503,7.9170003,-3.5350502,3.2290502,22.800001,13.387501,7.0875
39.74867724867725,-0.9604375,0.4104375,-0.2627625,7.9170003,-3.5350502,3.2290502,22.800001,13.387501,7.0875
39.81481481481481,-0.9604375,0.4104375,-0.2627625,7.905,-7.149,2.2039502,18.487501,21.65625,7.2562504
39.88095238095238,0.7869125,-0.68145,-0.9024125,8.466001,-5.36205,1.5840001,18.487501,21.65625,7.2562504
39.94708994708994,0.7954375,-1.914825,-1.6281375,12.463051,-0.95505005,-0.12105001,12.243751,27.843752,6.8437505
40.01322751322751,-0.4219875,-1.639275,-2.6541624,12.463051,-0.95505005,-0.12105001,12.243751,27.843752,6.8437505
40.079365079365076,-0.4219875,-1.639275,-2.6541624,8.97795,-0.59895,-0.95205003,3.9562502,32.2125,7.3125005
40.145502645502646,-0.6593125,-0.9933,-0.9928875,8.688001,1.7569501,0.42195,3.9562502,32.2125,7.3125005
40.21164021164021,-0.2453,0.3837625,-1.233375,10.273951,2.94,-0.813,3.9562502,32.2125,7.3125005
40.27777777777778,-0.2453,0.3837625,-1.233375,9.12705,3.8839502,1.404,-4.9125004,34.256252,8.1
40.34391534391534,0.2123,0.0422125,-1.5217125,7.52505,4.119,0.9799501,-4.9125004,34.256252,8.1
40.410052910052904,-0.4890875,-0.77935,-1.0236875,6.7939506,4.51095,0.492,-4.9125004,34.256252,8.1
40.476190476190474,-0.7678,-0.17379999,-0.6650875,6.7939506,4.51095,0.492,-13.8,32.8125,8.34375
40.54232804232804,-0.7678,-0.17379999,-0.6650875,8.93805,5.92005,0.89895004,-13.8,32.8125,8.34375
40.60846560846561,-1.1946,0.6754,-1.0025125,6.2650504,6.1330504,1.6099501,-13.8,32.8125,8.34375
40.67460317460317,-0.3752375,-0.5388625,-1.1460625,9.057,5.20095,1.6480501,-20.5125,28.3875,8.2875
40.74074074074074,0.0760375,0.7627125,-0.3916,9.057,5.20095,1.6480501,-20.5125,28.3875,8.2875
40.8068783068783,0.0760375,0.7627125,-0.3916,6.8299503,6.7219505,0.56595004,-25.3875,22.987501,8.700001
40.87301587301587,-0.383625,-1.1869,-2.246475,1.3879501,11.17695,-2.08695,-25.3875,22.987501,8.700001
40.939153439153436,-0.3081375,-1.8712375,-3.3033,-1.128,9.033,-0.81495005,-25.3875,22.987501,8.700001
41.00529100529101,0.52305,-0.3036,-2.76155,-4.41405,7.2390003,0.10395,-28.612501,14.75625,9.900001
41.07142857142857,0.2091375,-0.0748,-2.984025,-4.41405,7.2390003,0.10395,-28.612501,14.75625,9.900001
41.13756613756613,0.2091375,-0.0748,-2.984025,-7.182,6.21705,1.5499501,-29.212502,5.34375,11.8125
41.2037037037037,-1.1892375,-0.0705375,-3.84065,-10.473001,4.782,3.17895,-29.212502,5.34375,11.8125
41.269841269841265,-2.0161624,0.342375,-3.4447875,-7.8120003,5.2180505,0.55605,-29.212502,5.34375,11.8125
41.335978835978835,0.58575,0.62645,0.0,-7.8120003,5.2180505,0.55605,-29.212502,5.34375,11.8125
41.4021164021164,0.58575,0.62645,0.0,-8.42805,3.5340002,-0.19005,-25.987501,-4.2000003,12.187501
41.46825396825397,0.7049625,0.258225,-0.578875,-8.731951,2.3389502,0.312,-25.987501,-4.2000003,12.187501
41.53439153439153,0.055825,-0.214225,-0.857725,-9.181951,2.0059502,1.4089501,-20.34375,-12.543751,12.3
41.6005291005291,0.22605,-0.36107498,-0.8449375,-8.44695,7.25895,-1.0860001,-20.34375,-12.543751,12.3
41.666666666666664,-1.252075,0.9255125,-0.6725125,-8.44695,7.25895,-1.0860001,-20.34375,-12.543751,12.3
41.73280423280423,-1.252075,0.9255125,-0.6725125,-11.58195,1.75995,1.8880501,-13.387501,-19.25625,12.187501
41.7989417989418,0.7891125,-1.754225,0.1203125,-9.1390505,4.77705,1.1910001,-13.387501,-19.25625,12.187501
41.86507936507936,1.673375,-1.0624624,1.169575,-7.5769506,0.651,-0.37005,-5.5125003,-24.35625,12.056251
41.93121693121693,1.395625,-0.510125,-0.2393875,-9.175051,-2.1649501,-0.609,-5.5125003,-24.35625,12.056251
41.99735449735449,-0.859375,0.4019125,-2.8829625,-6.9600005,-5.9230504,-0.753,-5.5125003,-24.35625,12.056251
42.06349206349206,-1.08185,-0.1120625,-2.1954625,-7.4430003,-7.03905,0.18,12.0,-30.112501,13.687501
42.129629629629626,-0.8072625,-0.3345375,-3.292575,-6.078,-9.052951,0.80295,12.0,-30.112501,13.687501
42.195767195767196,-0.139975,0.27307498,-2.9297125,-6.078,-9.052951,0.80295,20.34375,-26.643751,14.1
42.26190476190476,-0.139975,0.27307498,-2.9297125,-0.76095,-11.11305,-2.14905,20.34375,-26.643751,14.1
42.32804232804233,0.300575,0.5786,-1.953875,-4.905,-9.273001,-0.93705004,20.34375,-26.643751,14.1
42.39417989417989,0.0834625,-0.2259125,-1.119525,3.55095,-10.693951,-1.9380001,25.500002,-19.556252,14.2875
42.460317460317455,0.0834625,-0.2259125,-1.119525,2.5549502,-7.8600006,0.90405005,25.500002,-19.556252,14.2875
42.526455026455025,-0.36987498,-1.3231624,-2.3582625,2.05395,-10.104,-0.93705004,25.500002,-19.556252,14.2875
42.59259259259259,1.1881375,-0.9868375,-3.2511876,2.05395,-10.104,-0.93705004,27.187502,-11.512501,15.3
42.65873015873016,1.1881375,-0.9868375,-3.2511876,5.1610503,-10.320001,-0.64005005,27.187502,-11.512501,15.3
42.72486772486772,1.2914,-0.3493875,-2.8722374,8.93295,-5.3500504,1.0540501,27.187502,-11.512501,15.3
42.79100529100529,0.544225,-0.48675,-3.22245,9.226951,-1.176,1.31805,25.743752,-1.9875001,14.587501
42.857142857142854,-0.79983747,-0.6059625,-3.3958375,9.226951,-1.176,1.31805,25.743752,-1.9875001,14.587501
42.923280423280424,-0.79983747,-0.6059625,-3.3958375,9.249001,1.3450501,0.33600003,20.587502,6.1875005,14.343751
42.98941798941799,-0.0836,-0.38885,-3.557675,9.385051,2.2789502,-0.73605,20.587502,6.1875005,14.343751
43.05555555555555,0.3218875,-0.197175,-2.9414,13.45695,4.2259502,-2.559,20.587502,6.1875005,14.343751
43.12169312169312,0.6730625,0.275275,-2.46675,6.708,7.5480003,0.69495004,12.6,11.94375,14.1
43.18783068783068,-0.384725,-0.02915,-1.2461625,6.708,7.5480003,0.69495004,12.6,11.94375,14.1
43.25396825396825,-0.384725,-0.02915,-1.2461625,9.579,6.1780505,0.34500003,4.3125,15.843751,12.95625
43.320105820105816,-0.1815,-0.5537125,0.1852125,9.579,6.1780505,0.34500003,4.3125,15.843751,12.95625
43.386243386243386,-0.4464625,-1.8371375,0.9142375,7.4070005,5.3040004,-3.4279501,4.3125,15.843751,12.95625
43.45238095238095,-0.4464625,-1.8371375,0.9142375,6.0660005,7.5480003,-4.0360503,4.3125,15.843751,12.95625
43.51851851851852,-0.384725,-1.8946124,-0.78429997,5.54895,6.4560003,-3.732,-4.6875,18.7875,12.4875
43.58465608465608,0.5325375,-0.509025,-0.86405,5.5200005,3.5389502,-2.94405,-4.6875,18.7875,12.4875
43.650793650793645,0.497475,-1.5041125,-2.43595,5.5200005,3.5389502,-2.94405,-13.556251,18.4125,13.25625
43.716931216931215,0.497475,-1.5041125,-2.43595,-8.18295,5.8690505,-8.029051,-13.556251,18.4125,13.25625
43.78306878306878,0.924275,-2.64495,-5.9393125,-0.90705,6.5280004,-4.55595,-13.556251,18.4125,13.25625
43.84920634920635,-0.4560875,0.83393747,-3.41605,-4.1719503,7.63005,-3.9960003,-20.1,13.556251,14.2875
43.91534391534391,-0.1698125,-1.0720875,-3.35115,-5.75505,6.57105,-3.42105,-20.1,13.556251,14.2875
43.98148148148148,-0.0708125,-1.1284626,-2.0389874,-6.4350004,3.14595,-3.8040001,-20.1,13.556251,14.2875
44.047619047619044,0.743325,-1.122,-1.7430875,-6.4350004,3.14595,-3.8040001,-24.112501,6.5437503,16.44375
44.113756613756614,0.743325,-1.122,-1.7430875,-8.181001,0.90495,-1.1359501,-24.112501,6.5437503,16.44375
44.17989417989418,0.32395,-1.353,-2.148575,-13.507951,-2.56005,-3.732,-24.112501,6.5437503,16.44375
44.24603174603175,0.3091,-1.8286124,-1.8634,-10.82505,1.419,-0.537,-23.456251,-1.44375,19.85625
44.31216931216931,-0.65395,-1.424225,-1.0077375,-12.219001,-0.294,-0.49905002,-23.456251,-1.44375,19.85625
44.37830687830687,-0.484825,-1.0954624,-0.987525,-12.219001,-0.294,-0.49905002,-17.587502,-7.5000005,21.712502
44.44444444444444,-0.484825,-1.0954624,-0.987525,-8.101951,-4.4880004,1.4260501,-17.587502,-7.5000005,21.712502
44.510582010582006,0.1249875,-0.1205875,-1.824075,-10.31505,-3.417,1.53795,-17.587502,-7.5000005,21.712502
44.576719576719576,-0.803,-1.1944625,-1.4812875,-10.31505,-3.417,1.53795,-8.75625,-10.3125,23.587502
44.64285714285714,-0.7264125,-1.287,-1.8442875,-8.68605,-5.6179504,1.3560001,-8.75625,-10.3125,23.587502
44.70899470899471,-0.7264125,-1.287,-1.8442875,-6.6240005,-6.93795,1.6360501,-8.75625,-10.3125,23.587502
44.77513227513227,-0.2910875,-0.42185,-1.754775,-5.55105,-8.181001,3.4399502,1.7437501,-9.84375,25.087502
44.84126984126984,-0.319825,-1.75945,-1.7271374,-4.0399504,-7.4359503,2.56995,1.7437501,-9.84375,25.087502
44.907407407407405,0.3059375,-0.05995,-1.4356375,-4.0399504,-7.4359503,2.56995,1.7437501,-9.84375,25.087502
44.97354497354497,0.3059375,-0.05995,-1.4356375,-3.5080502,-6.8950505,3.0330002,10.9875,-8.400001,24.7875
45.03968253968254,0.4431625,0.162525,-0.9332125,-3.15105,-8.18595,4.362,10.9875,-8.400001,24.7875
45.1058201058201,0.29741248,0.2699125,-0.4246,-6.5599504,-9.37395,3.1930501,19.143751,-5.4,22.9125
45.17195767195767,-0.073975,0.4189625,-0.104225,0.51405,-6.8230505,4.34805,19.143751,-5.4,22.9125
45.238095238095234,1.035925,0.85635,-1.32495,-0.79995006,-9.031051,3.7420502,19.143751,-5.4,22.9125
45.304232804232804,0.775225,-0.232375,-0.3213375,-2.802,-9.181951,5.84205,25.3875,0.7875,20.1
45.37037037037037,0.5049,-1.130525,-0.103125,-0.30105,-9.46695,5.29605,25.3875,0.7875,20.1
45.43650793650794,-0.1601875,0.6700375,-1.2291125,2.3149502,-9.73095,4.78095,29.2875,8.34375,16.44375
45.5026455026455,-0.1601875,0.6700375,-1.2291125,1.79595,-7.4460006,3.3970501,29.2875,8.34375,16.44375
45.56878306878307,-0.8668,-1.5615875,-1.6963375,1.4959501,-7.7380505,3.3780003,29.2875,8.34375,16.44375
45.63492063492063,-1.01695,-1.7084374,-2.86055,1.4959501,-7.7380505,3.3780003,29.812502,15.543751,13.25625
45.701058201058196,-0.7316375,-1.254,-2.156,4.23105,-6.327,2.42205,29.812502,15.543751,13.25625
45.767195767195766,-0.7316375,-1.254,-2.156,8.02005,-8.373,2.25705,29.812502,15.543751,13.25625
45.83333333333333,0.4049375,-0.3718,-1.2727,8.278951,-6.6120005,1.8589501,26.643751,22.25625,11.700001
45.8994708994709,0.1175625,-1.7457,-2.2996874,4.84005,-1.5850501,2.56095,26.643751,22.25625,11.700001
45.96560846560846,-0.3667125,-2.293775,-3.2990375,4.84005,-1.5850501,2.56095,21.6,28.143751,9.900001
46.03174603174603,0.548625,0.79035,-0.5416125,10.465951,-3.3600001,0.87195003,21.6,28.143751,9.900001
46.097883597883595,0.548625,0.79035,-0.5416125,11.004001,-0.036,-1.2409501,21.6,28.143751,9.900001
46.164021164021165,-0.42625,-0.510125,-2.213475,10.566001,0.46905002,-1.6650001,14.45625,31.25625,9.0
46.23015873015873,-0.0133375,-0.132275,-1.7037625,12.3,2.502,-0.68595004,14.45625,31.25625,9.0
46.29629629629629,-0.2486,-0.165275,-2.1220374,12.3,2.502,-0.68595004,6.1875005,31.9125,8.94375
46.36243386243386,-0.499675,0.7519875,-4.4856625,5.9700003,6.3750005,1.6459501,6.1875005,31.9125,8.94375
46.42857142857142,-0.499675,0.7519875,-4.4856625,4.545,8.808001,-0.32895002,6.1875005,31.9125,8.94375
46.49470899470899,0.3037375,0.4912875,-3.6108875,3.0529501,8.286,-0.3,-2.6437502,28.500002,8.587501
46.56084656084656,-0.027225,-0.7591375,-0.97473747,3.0529501,8.286,-0.3,-2.6437502,28.500002,8.587501
46.62698412698413,-0.027225,-0.7591375,-0.97473747,1.2280501,8.95695,0.975,-10.856251,22.85625,8.8125
46.69312169312169,-0.4698375,-0.17173749,-1.6484874,8.64105,9.769051,0.26205,-10.856251,22.85625,8.8125
46.75925925925926,-0.4613125,0.0209,-0.9141,2.66295,8.68095,2.19,-10.856251,22.85625,8.8125
46.82539682539682,-0.874225,-1.95525,0.1032625,-1.3120501,8.34105,-0.726,-18.112501,15.6,9.6
46.891534391534385,-0.95094997,-0.6463875,-1.0439,1.09905,11.50695,1.7730001,-18.112501,15.6,9.6
46.957671957671955,-1.303225,0.1082125,-1.741025,-1.2760501,11.698951,1.8019501,-18.112501,15.6,9.6
47.02380952380952,0.316525,0.187,-1.3355374,-1.2760501,11.698951,1.8019501,-23.7,7.0125003,9.900001
47.08994708994709,0.316525,0.187,-1.3355374,-2.6890502,10.59,2.046,-23.7,7.0125003,9.900001
47.15608465608465,0.308,-0.168575,-0.6246625,-2.562,8.25,1.7629501,-23.7,7.0125003,9.900001
47.22222222222222,0.9614,0.2816,-1.0099375,-5.4960003,9.58905,-1.9620001,-26.156252,-2.5125,9.7875
47.288359788359784,1.8489625,0.4019125,-3.564,-5.8510504,7.7040005,-0.11805001,-26.156252,-2.5125,9.7875
47.354497354497354,-0.10065,-0.4048,-2.6764374,-6.3750005,5.0599504,-1.50195,-26.156252,-2.5125,9.7875
47.42063492063492,0.1909875,1.0797875,-2.3890624,-6.3750005,5.0599504,-1.50195,-24.843752,-12.4875,10.6125
47.48677248677249,-0.2985125,0.8680375,-3.5864124,-8.8279505,2.49495,-0.78195006,-24.843752,-12.4875,10.6125
47.55291005291005,-0.2985125,0.8680375,-3.5864124,-9.66405,0.27495003,-0.68295,-24.843752,-12.4875,10.6125
47.61904761904761,0.2547875,-1.0241,-1.5164875,-9.570001,0.48795003,1.5289501,-19.6875,-20.400002,11.512501
47.68518518518518,0.105875,-0.7910375,-1.4707,-8.746051,-1.52505,-1.23405,-19.6875,-20.400002,11.512501
47.751322751322746,0.4208875,-0.7623,-0.7183,-8.746051,-1.52505,-1.23405,-11.75625,-25.556252,11.64375
47.817460317460316,0.170775,-1.3231624,0.4576,-13.387951,-2.35905,1.4089501,-11.75625,-25.556252,11.64375
47.88359788359788,0.170775,-1.3231624,0.4576,-6.4230003,-1.6140001,-0.312,-11.75625,-25.556252,11.64375
47.94973544973545,-0.105875,1.0649375,-1.200375,-6.4230003,-1.6140001,-0.312,-2.4562502,-27.900002,11.75625
48.01587301587301,-1.513875,0.2721125,-1.9485124,-9.003,0.09705,3.5860503,-2.4562502,-27.900002,11.75625
48.08201058201058,-1.513875,0.2721125,-1.9485124,-7.2040505,-8.05395,4.14405,-2.4562502,-27.900002,11.75625
48.148148148148145,0.3474625,-0.8837125,-2.4294875,-3.25005,-10.741051,2.6209502,6.95625,-27.656252,11.64375
48.21428571428571,-0.23045,-1.63075,-4.1482377,-0.024,-9.52005,2.628,6.95625,-27.656252,11.64375
48.28042328042328,-1.5064499,-0.29095,-4.0588627,-0.024,-9.52005,2.628,6.95625,-27.656252,11.64375
48.34656084656084,-1.5064499,-0.29095,-4.0588627,2.14995,-8.91405,1.7490001,15.3,-22.25625,10.743751
48.41269841269841,-1.3212374,-0.8889375,-3.7725875,3.69495,-6.4279504,0.09405001,15.3,-22.25625,10.743751
48.478835978835974,-1.0201125,-0.6336,-3.7544374,8.437051,-5.40105,0.23505001,20.400002,-13.200001,10.6875
48.544973544973544,-0.1038125,0.2784375,-2.9424999,9.009001,-1.04595,1.6459501,20.400002,-13.200001,10.6875
48.61111111111111,-0.1038125,0.2784375,-2.9424999,9.009001,-1.04595,1.6459501,20.400002,-13.200001,10.6875
48.67724867724868,-0.2102375,-0.3729,-1.8495125,7.5769506,1.695,0.83895004,20.8125,-3.8437502,10.8
48.74338624338624,-0.6252125,-0.0972125,-0.6864,8.63805,2.193,1.0330501,20.8125,-3.8437502,10.8
48.80952380952381,-0.1134375,0.322025,0.1128875,9.534,1.79805,1.5840001,16.800001,4.6125,10.387501
48.87566137566137,-0.1750375,-0.1057375,-0.120175,10.719001,-0.108,-0.09195001,16.800001,4.6125,10.387501
48.941798941798936,-0.2165625,-0.2110625,-0.48633748,11.368951,-1.353,-0.039,16.800001,4.6125,10.387501
49.007936507936506,-1.8183,-0.0705375,-1.5547125,8.65305,0.15,0.22800002,10.44375,11.587501,9.65625
49.07407407407407,-2.3120625,-0.573925,-3.5363624,7.623,4.86105,2.6209502,10.44375,11.587501,9.65625
49.14021164021164,-2.3120625,-0.573925,-3.5363624,6.59805,10.128,-0.66705,10.44375,11.587501,9.65625
49.2063492063492,-0.3667125,0.82445,-1.9453499,6.9810004,7.04295,2.90295,2.2125,15.543751,9.900001
49.27248677248677,0.374,-0.8507125,-5.3858747,-1.6020001,7.2850504,0.453,2.2125,15.543751,9.900001
49.338624338624335,-1.1308,-0.5484875,-5.290175,-1.6020001,7.2850504,0.453,-5.9437504,15.95625,10.9875
49.404761904761905,-1.1308,-0.5484875,-5.290175,-4.5480003,8.55195,0.072,-5.9437504,15.95625,10.9875
49.47089947089947,-1.0488499,-0.589875,-4.1556625,-7.0909505,8.93505,2.9490001,-5.9437504,15.95625,10.9875
49.53703703703703,-0.187825,-0.183425,-1.8528125,-9.144,7.5049505,3.68895,-11.587501,12.656251,12.187501
49.6031746031746,-0.17407499,0.0730125,-1.2706375,-10.21695,1.7070001,1.4569501,-11.587501,12.656251,12.187501
49.669312169312164,-0.17407499,0.0730125,-1.2706375,-10.21695,1.7070001,1.4569501,-14.156251,5.7562504,13.087501
49.735449735449734,-0.842325,0.7115625,0.9865625,-6.8929505,8.884951,3.62895,-14.156251,5.7562504,13.087501
49.8015873015873,1.888425,-0.0642125,-1.594175,-9.13395,5.53905,-1.1700001,-14.156251,5.7562504,13.087501
49.86772486772487,1.888425,-0.0642125,-1.594175,-8.533051,2.7180002,0.66405004,-13.743751,-3.6562502,13.200001
49.93386243386243,0.22935,0.666875,-3.0383375,-7.4290504,-1.7410501,3.6480002,-13.743751,-3.6562502,13.200001
50.0,-0.056925,-2.1085625,-3.2734625,-9.07905,-3.8149502,2.53005,-13.743751,-3.6562502,13.200001
50.06613756613756,-0.36025,-2.4938376,-3.0999374,-9.07905,-3.8149502,2.53005,-8.512501,-11.1,14.2875
50.13227513227513,-0.36025,-2.4938376,-3.0999374,-8.31,-4.8109503,4.37895,-8.512501,-11.1,14.2875
50.198412698412696,-1.1276375,-1.3253624,-3.0415,-6.16905,-6.05205,3.21705,-8.512501,-11.1,14.2875
50.26455026455026,0.250525,1.67365,-1.952775,-6.16905,-6.05205,3.21705,0.1125,-13.556251,13.500001
50.33068783068783,0.250525,1.67365,-1.952775,-3.7360501,-7.3290005,3.6510003,0.1125,-13.556251,13.500001
50.39682539682539,1.3498375,0.3370125,-1.314225,-2.6530502,-9.53205,2.26605,0.1125,-13.556251,13.500001
50.46296296296296,0.6826875,-0.8314625,-0.138325,-1.9369501,-9.348001,5.2170005,7.74375,-13.687501,13.500001
50.529100529100525,0.234575,-0.71445,-0.3064875,-4.1449504,-10.087951,3.01095,7.74375,-13.687501,13.500001
50.595238095238095,-0.9977,0.4360125,-0.268125,-1.35,-8.76105,3.6460502,7.74375,-13.687501,13.500001
50.66137566137566,-0.9977,0.4360125,-0.268125,-1.35,-8.76105,3.6460502,15.656251,-11.512501,12.187501
50.72751322751323,-0.8328375,-0.4048,-0.401225,-1.14705,-9.027,4.46505,23.1,-5.64375,11.043751
50.79365079365079,-0.6370375,-0.7495125,-0.4778125,-0.354,-8.706,2.388,23.1,-5.64375,11.043751
50.859788359788354,-1.0318,-2.431,-3.4342,0.54795,-8.361,0.513,23.1,-5.64375,11.043751
50.925925925925924,-1.073325,-1.7030749,-3.9758124,4.27005,-9.490951,0.74505,23.1,-5.64375,11.043751
50.99206349206349,-1.073325,-1.7030749,-3.9758124,4.27005,-9.490951,0.74505,27.056252,3.3000002,10.25625
51.05820105820106,-0.95617497,-1.5285875,-4.504775,6.3030005,-6.94995,-0.23805001,25.743752,12.843751,10.556251
51.12433862433862,-1.0126874,-1.2423126,-4.1067123,9.084001,-3.1920002,-3.9480002,25.743752,12.843751,10.556251
51.19047619047619,-1.446775,-1.7711375,-3.3565125,7.1700006,2.63595,-6.10995,25.743752,12.843751,10.556251
51.25661375661375,-1.4628625,-0.4824875,-2.6274874,7.3230004,7.182,-6.43905,25.743752,12.843751,10.556251
51.32275132275132,-0.499675,-0.476025,-2.7467,3.7189503,7.4170504,-3.8500502,20.643751,20.7,12.187501
51.388888888888886,-0.5358375,-0.69313747,-3.5204124,1.19895,9.43305,-3.21495,13.312501,24.056252,13.500001
51.45502645502645,-1.105225,-0.7858125,-3.051125,-0.15105,11.46195,-2.0680501,13.312501,24.056252,13.500001
51.52116402116402,-1.105225,-0.7858125,-3.051125,-0.15105,11.46195,-2.0680501,13.312501,24.056252,13.500001
51.58730158730158,-0.5209875,-1.1666875,-2.6126375,-3.0010502,9.972,-2.52495,5.34375,20.8875,16.556252
51.65343915343915,-0.0867625,-0.7005625,-2.183775,-3.8359501,9.78495,-4.7719502,5.34375,20.8875,16.556252
51.719576719576715,-0.089925,-0.6197125,-0.7618875,-8.368051,2.526,-4.9729505,0.95625,14.512501,18.7875
51.785714285714285,-1.921425,0.093225,-2.5125375,-8.3220005,9.979051,-0.29805002,0.95625,14.512501,18.7875
51.85185185185185,-1.921425,0.093225,-2.5125375,-8.3220005,9.979051,-0.29805002,0.95625,14.512501,18.7875
51.91798941798942,-1.0264375,0.7425,-2.8967125,-9.13395,5.6179504,1.16505,-2.34375,6.8437505,21.35625
51.98412698412698,0.2132625,1.47675,-4.0035872,-9.53205,2.5879502,0.80805004,-2.34375,6.8437505,21.35625
52.05026455026455,-0.385825,0.799975,-4.2205625,-8.65005,-0.76605004,-1.27005,-3.54375,-0.4875,22.9125
52.116402116402114,-0.4422,-1.080475,-3.8226376,-8.868,-3.6670501,-0.873,-3.54375,-0.4875,22.9125
52.18253968253968,-0.762575,-2.0042,-3.3320374,-8.20005,-6.36105,-1.074,-3.54375,-0.4875,22.9125
52.24867724867725,-0.368775,-0.7836125,-3.1405,-8.20005,-6.36105,-1.074,-2.7,-5.7000003,24.4125
52.31481481481481,-0.368775,-0.7836125,-3.1405,-5.32095,-8.061001,0.09405001,-2.7,-5.7000003,24.4125
52.38095238095238,-0.109175,-0.1643125,-2.1198375,-4.56495,-8.52795,-1.23705,-2.7,-5.7000003,24.4125
52.44708994708994,-0.109175,1.02025,-1.577125,-2.80395,-8.184,0.22800002,1.25625,-9.0,24.956251
52.51322751322751,-0.1368125,1.034,-1.199275,-2.1360002,-9.955951,-0.40995002,1.25625,-9.0,24.956251
52.579365079365076,0.8199125,-0.084425,-1.6015999,1.53495,-9.582001,1.524,1.25625,-9.0,24.956251
52.645502645502646,1.8415375,-2.05315,-1.4249125,-0.42795002,-10.035001,1.70595,7.6125,-9.243751,24.900002
52.71164021164021,1.085975,-0.47079998,0.0383625,-1.9369501,-10.18095,0.85305005,7.6125,-9.243751,24.900002
52.77777777777777,1.085975,-0.47079998,0.0383625,0.99600005,-8.61495,3.0349503,7.6125,-9.243751,24.900002
52.84391534391534,0.498575,-0.09075,0.0298375,-1.1920501,-9.667951,4.2109504,14.212501,-5.8125,22.3875
52.910052910052904,0.414425,-0.45374998,-1.0652125,1.7689501,-9.163051,3.1380002,14.212501,-5.8125,22.3875
52.976190476190474,0.414425,-0.45374998,-1.0652125,1.7689501,-9.163051,3.1380002,20.2875,0.71250004,20.04375
53.04232804232804,0.0803,-1.5104375,-1.2111,3.49095,-10.65495,2.7259502,20.2875,0.71250004,20.04375
53.10846560846561,-0.418825,-2.7641625,-2.8392375,4.42995,-5.9710503,0.24000001,20.2875,0.71250004,20.04375
53.17460317460317,-0.1857625,-0.6942375,-3.7470124,7.4070005,-5.37405,1.248,22.800001,9.056251,16.85625
53.24074074074074,-0.499675,-0.91025,-3.652275,8.587951,-2.7900002,-0.68805003,22.800001,9.056251,16.85625
53.3068783068783,-0.499675,-0.91025,-3.652275,8.587951,-2.7900002,-0.68805003,20.7,18.0,14.156251
53.37301587301587,-0.65615,-1.4966875,-3.7236376,8.80095,0.033,-1.5649501,20.7,18.0,14.156251
53.439153439153436,-1.6554999,-1.572175,-3.5704625,9.988951,6.2119503,-0.50895,20.7,18.0,14.156251
53.505291005291,-0.089925,-1.950025,-3.002175,9.988951,6.2119503,-0.50895,14.2875,24.112501,13.25625
53.57142857142857,-0.089925,-1.950025,-3.002175,6.1639504,8.439,-3.2080503,14.2875,24.112501,13.25625
53.63756613756613,0.903925,-1.82545,-3.25435,4.4419503,6.7170005,-3.72495,14.2875,24.112501,13.25625
53.7037037037037,-0.122925,-2.1671374,-2.95955,4.4419503,6.7170005,-3.72495,5.8125,25.0125,13.200001
53.769841269841265,-0.122925,-2.1671374,-2.95955,0.75900006,5.74695,-2.6230502,5.8125,25.0125,13.200001
53.835978835978835,-0.7338375,-1.3732125,-3.2990375,-1.6710001,7.347,-2.0389502,5.8125,25.0125,13.200001
53.9021164021164,-0.4731375,-1.3869625,-4.1823373,-4.19805,2.871,-4.3720503,-0.95625,20.643751,14.887501
53.96825396825397,-1.4628625,-0.1535875,-1.8656,-5.5680003,9.531,-2.154,-0.95625,20.643751,14.887501
54.03439153439153,-1.0423875,-1.457225,-2.1476126,-7.2349505,4.7410502,-1.572,-0.95625,20.643751,14.887501
54.100529100529094,-1.0423875,-1.457225,-2.1476126,-7.2349505,4.7410502,-1.572,-3.9562502,13.687501,15.4875
54.166666666666664,-2.169475,-1.358225,-2.0167124,-8.239051,6.5860505,1.2220501,-3.9562502,13.687501,15.4875
54.23280423280423,-1.727825,-0.9942625,-2.0134125,-9.08205,1.83105,3.9720001,-3.9562502,13.687501,15.4875
54.2989417989418,-0.747725,-0.3845875,-1.2046375,-8.75805,1.2760501,3.07605,-3.9562502,13.687501,15.4875
54.36507936507936,-0.52415,-0.73039997,-0.0680625,-9.89805,-1.1230501,4.5420003,-4.0875,5.64375,15.95625
54.43121693121693,-0.52415,-0.73039997,-0.0680625,-9.89805,-1.1230501,4.5420003,-3.24375,-1.44375,15.1125
54.49735449735449,0.32395,1.1468875,0.93334997,-9.450001,0.066,2.1010501,-3.24375,-1.44375,15.1125
54.56349206349206,-1.08075,1.0404625,0.0457875,-8.157001,6.768,1.6390501,-3.24375,-1.44375,15.1125
54.629629629629626,1.2945625,-0.143,0.0606375,-10.291051,0.74895006,2.8549502,-3.24375,-1.44375,15.1125
54.695767195767196,-0.0165,0.505175,-0.300025,-10.291051,0.74895006,2.8549502,-1.7437501,-9.6,15.3
54.76190476190476,-0.0165,0.505175,-0.300025,-9.75195,2.40405,-0.15405001,-1.7437501,-9.6,15.3
54.82804232804232,-0.3443,0.799975,-0.7225625,-8.81595,-3.108,0.70995003,-1.7437501,-9.6,15.3
54.89417989417989,-0.56787497,0.961675,-3.1618125,-8.81595,-3.108,0.70995003,3.8437502,-17.94375,15.712501
54.960317460317455,-0.56787497,0.961675,-3.1618125,-9.469951,-3.7120502,-0.05595,3.8437502,-17.94375,15.712501
55.026455026455025,-0.1464375,0.225225,-2.0890374,-7.1659503,-4.38705,0.93900007,3.8437502,-17.94375,15.712501
55.09259259259259,0.03135,0.685025,-2.9074376,-7.1659503,-4.38705,0.93900007,12.4875,-21.84375,16.143751
55.15873015873016,0.03135,0.685025,-2.9074376,-5.13705,-8.128051,-1.7010001,12.4875,-21.84375,16.143751
55.22486772486772,-0.19855,0.7052375,-3.9546375,-6.7320004,-8.16405,-0.777,12.4875,-21.84375,16.143751
55.29100529100529,0.06325,0.2613875,-3.0138624,-3.0250502,-6.6199503,0.39105,20.94375,-20.2875,16.143751
55.357142857142854,0.06325,0.2613875,-3.0138624,0.30105,-10.473001,-3.39,20.94375,-20.2875,16.143751
55.42328042328042,1.5945874,1.4150125,-0.5225,1.8000001,-9.193951,0.49395,20.94375,-20.2875,16.143751
55.48941798941799,1.1232375,0.1859,-0.024475,1.8000001,-9.193951,0.49395,20.94375,-20.2875,16.143751
55.55555555555555,1.1232375,0.1859,-0.024475,0.18405001,-9.493951,1.368,25.85625,-14.45625,15.4875
55.62169312169312,-0.13365,0.4912875,-0.66934997,0.93600005,-11.196,1.8420001,25.85625,-14.45625,15.4875
55.68783068783068,-0.19965,-1.1455125,-1.6676,2.9640002,-10.416,1.4640001,27.487501,-6.4125004,15.1125
55.75396825396825,0.0686125,-0.5016,-1.987975,5.8120503,-7.4989505,0.20895001,27.487501,-6.4125004,15.1125
55.820105820105816,0.3133625,-0.2844875,-1.414325,6.801,-7.3450503,1.131,27.487501,-6.4125004,15.1125
55.886243386243386,0.3133625,-0.2844875,-1.414325,7.35405,-5.9659505,0.42900002,25.44375,1.5562501,16.2
55.95238095238095,0.2963125,-0.9549375,-0.660825,7.9510503,-5.84805,0.21900001,21.112501,9.1125,18.1875
56.01851851851851,0.29947498,-0.8166125,-0.9992125,8.575951,-6.4300504,-0.53505003,21.112501,9.1125,18.1875
56.08465608465608,0.3623125,-0.32381248,-1.5580125,8.401051,-5.22795,-2.2690501,16.44375,16.987501,19.6875
56.150793650793645,1.0305625,-0.5548125,-2.2561,4.24305,-4.6129503,-0.29805002,16.44375,16.987501,19.6875
56.216931216931215,0.94655,0.4252875,-2.0156126,12.283051,-2.6130002,-1.296,16.44375,16.987501,19.6875
56.28306878306878,0.202675,2.2026124,1.22595,8.94495,-1.8100501,1.5960001,10.5,24.6,20.34375
56.34920634920635,-1.268025,2.402675,0.7566625,10.461,0.35595003,6.34005,10.5,24.6,20.34375
56.41534391534391,-1.268025,2.402675,0.7566625,10.461,0.35595003,6.34005,3.0,30.000002,19.0125
56.48148148148148,-0.9807875,0.5115,0.859925,8.51805,-2.2009501,3.2310002,3.0,30.000002,19.0125
56.547619047619044,0.2132625,-0.0781,-1.528175,11.40705,-2.1409502,3.2050502,3.0,30.000002,19.0125
56.613756613756614,0.759275,-0.2270125,-2.330625,8.871,-0.16305001,3.0229502,-4.2000003,32.8875,17.15625
56.67989417989418,0.7198125,-0.295075,-2.460425,9.54405,3.24195,2.13,-4.2000003,32.8875,17.15625
56.74603174603174,0.7198125,-0.295075,-2.460425,9.54405,3.24195,2.13,-11.043751,32.15625,15.000001
56.81216931216931,0.6474875,0.0273625,-2.8733375,8.169001,4.0279503,2.9580002,-11.043751,32.15625,15.000001
56.87830687830687,-0.0292875,-0.2525875,-3.1064,2.4420002,10.177951,0.82005006,-11.043751,32.15625,15.000001
56.94444444444444,0.2484625,0.26895,-0.3938,11.742001,2.26305,5.2099504,-11.043751,32.15625,15.000001
57.010582010582006,0.2484625,0.26895,-0.3938,11.742001,2.26305,5.2099504,-18.243752,27.900002,12.4875
57.076719576719576,-0.1197625,-0.5069625,-1.342,5.12895,7.905,0.34095,-18.243752,27.900002,12.4875
57.14285714285714,-0.4549875,-0.314325,-0.9482,4.4370003,11.27505,2.805,-24.0,22.143751,9.84375
57.20899470899471,-0.122925,-0.020625,0.2629,4.2120004,8.39595,5.7990003,-24.0,22.143751,9.84375
57.27513227513227,0.252725,-0.1780625,-2.755225,4.2120004,8.39595,5.7990003,-24.0,22.143751,9.84375
57.341269841269835,0.252725,-0.1780625,-2.755225,3.8029501,5.3760004,2.9850001,-28.0125,15.243751,7.5000005
57.407407407407405,1.0082875,-0.3727625,-3.9109125,-6.0139503,11.433001,2.0680501,-28.0125,15.243751,7.5000005
57.47354497354497,1.0082875,-0.3727625,-3.9109125,-6.0139503,11.433001,2.0680501,-30.187502,6.3562503,5.34375
57.53968253968254,0.81675,0.2189,-1.9846749,-3.9919503,8.724,0.063,-30.187502,6.3562503,5.34375
57.6058201058201,0.512325,0.3179,-1.7538124,-6.29895,6.8629503,-1.4260501,-30.187502,6.3562503,5.34375
57.67195767195767,0.071775,-0.2270125,-0.7907625,-4.9999504,5.5939503,-0.813,-30.187502,6.3562503,5.34375
57.738095238095234,-0.1549625,-1.310375,-0.01485,-4.51695,6.0540004,1.8400501,-29.343752,-2.5875,4.55625
57.804232804232804,-0.24213749,-1.5498999,0.6012875,-4.51695,6.0540004,1.8400501,-26.587502,-11.64375,4.9875
57.87037037037037,-0.24213749,-1.5498999,0.6012875,-2.60295,6.32205,1.40205,-26.587502,-11.64375,4.9875
57.93650793650794,-0.7104625,0.10175,-0.9535625,-1.8559501,5.39295,0.91305006,-26.587502,-11.64375,4.9875
58.0026455026455,-1.631025,0.2391125,-2.6211624,-10.519051,6.1860003,5.27895,-23.34375,-20.7,4.9125004
58.06878306878306,-0.632775,-0.495275,-0.86845,-6.3490505,5.2920003,2.6850002,-23.34375,-20.7,4.9125004
58.13492063492063,-0.632775,-0.495275,-0.86845,-6.3490505,5.2920003,2.6850002,-23.34375,-20.7,4.9125004
58.201058201058196,0.0462,-0.3196875,-1.743225,-7.75995,1.47,4.73295,-17.7,-27.843752,4.2000003
58.267195767195766,-0.485925,-0.1962125,-2.2996874,-8.538,-1.6480501,2.4409502,-17.7,-27.843752,4.2000003
58.33333333333333,-0.65505,-0.4686,-3.6405876,-7.386,-5.62305,4.5199504,-17.7,-27.843752,4.2000003
58.3994708994709,-0.65505,-0.4686,-3.6405876,-7.386,-5.62305,4.5199504,-9.4875,-31.9125,4.0125003
58.46560846560846,-0.927575,-1.457225,-3.41825,-8.025001,-9.22305,5.0010004,-0.05625,-32.456253,3.9562502
58.53174603174603,-0.827475,-0.8954,-2.5403125,-2.8330503,-7.182,2.25705,-0.05625,-32.456253,3.9562502
58.597883597883595,0.0856625,-0.57928747,-0.4448125,-2.8330503,-7.182,2.25705,-0.05625,-32.456253,3.9562502
58.66402116402116,0.0856625,-0.57928747,-0.4448125,-5.89095,-6.162,5.2840505,9.243751,-28.9125,2.5875
58.73015873015873,1.0476125,0.5913875,-0.7854,-5.3089504,-8.04195,3.14805,9.243751,-28.9125,2.5875
58.79629629629629,1.083775,1.582075,-1.317525,-2.25795,-6.9360003,4.3980002,16.9125,-22.2,0.95625
58.86243386243386,-0.1804,1.0894125,-2.428525,0.165,-8.548051,5.8230004,16.9125,-22.2,0.95625
58.92857142857142,-0.1804,1.0894125,-2.428525,0.165,-8.548051,5.8230004,16.9125,-22.2,0.95625
58.99470899470899,-0.6199875,-0.1068375,-1.4345375,2.3850002,-7.36005,6.024,22.087502,-14.212501,-0.84375006
59.06084656084656,-0.028325,-1.0624624,-0.5555,-0.56505,-8.878051,4.149,22.087502,-14.212501,-0.84375006
59.12698412698413,-0.5476625,0.242275,-2.380675,1.09905,-7.4389505,3.186,25.25625,-4.9125004,-2.2875001
59.19312169312169,-0.1964875,0.799975,-2.07845,9.151051,-10.681951,4.977,25.25625,-4.9125004,-2.2875001
59.25925925925925,0.5655375,-0.43353748,-1.0993125,2.91405,-7.4989505,6.45795,25.25625,-4.9125004,-2.2875001
59.32539682539682,0.9827125,-0.3026375,-1.6218125,2.91405,-7.4989505,6.45795,26.400002,5.15625,-3.24375
59.391534391534385,0.9827125,-0.3026375,-1.6218125,6.7270503,-7.4479504,5.1330004,26.400002,5.15625,-3.24375
59.457671957671955,1.0060875,-0.445225,-2.3849375,8.406,-5.86005,4.95795,26.400002,5.15625,-3.24375
59.52380952380952,-0.2017125,-0.99962497,-1.68355,8.608951,-3.5080502,4.94595,24.243752,14.887501,-4.14375
59.58994708994709,-0.2805,-0.8996625,-1.7846125,6.636,-1.4059501,2.673,24.243752,14.887501,-4.14375
59.65608465608465,-0.9774875,-0.8294,-0.7535,8.04405,-3.3430502,1.8540001,24.243752,14.887501,-4.14375
59.72222222222222,-0.9774875,-0.8294,-0.7535,8.04405,-3.3430502,1.8540001,18.54375,23.587502,-4.8562503
59.788359788359784,-2.16095,-0.1035375,0.0765875,10.651951,-3.5010002,3.2770503,18.54375,23.587502,-4.8562503
59.854497354497354,-0.910525,-0.2440625,-0.2512125,9.82905,-3.1680002,3.01395,18.54375,23.587502,-4.8562503
59.92063492063492,-0.3400375,-0.328075,-1.3525875,9.10305,0.483,0.90105003,18.54375,23.587502,-4.8562503
59.98677248677248,0.462275,-0.0738375,-1.0802,8.590051,-3.0870001,1.1839501,11.45625,29.5125,-4.2000003
60.05291005291005,-0.42625,1.034,-0.63635,8.34795,-1.7770501,2.058,11.45625,29.5125,-4.2000003
60.11904761904761,-0.42625,1.034,-0.63635,8.34795,-1.7770501,2.058,3.3000002,32.100002,-2.1000001
60.18518518518518,-0.62535,0.7115625,-1.315325,12.06105,0.56700003,4.7640004,3.3000002,32.100002,-2.1000001
60.251322751322746,-0.0900625,-0.73356247,-1.0791,11.433001,1.09605,3.6100502,3.3000002,32.100002,-2.1000001
60.317460317460316,-0.0900625,-0.73356247,-1.0791,9.7900505,0.70095,1.5480001,3.3000002,32.100002,-2.1000001
60.38359788359788,0.5900125,-2.5448499,-1.7996,6.6120005,2.5450501,-3.79695,-5.5875,32.4,0.35625002
60.44973544973545,-0.356125,0.82115,-1.0355124,8.679001,2.9190001,-1.3990501,-5.5875,32.4,0.35625002
60.51587301587301,-0.356125,0.82115,-1.0355124,8.679001,2.9190001,-1.3990501,-5.5875,32.4,0.35625002
60.582010582010575,-0.2134,1.173425,-1.2441,8.92605,4.9669504,0.71205,-13.556251,30.7875,3.4125001
60.648148148148145,-0.290125,1.4916,-2.2262626,2.7820501,8.78895,3.28905,-13.556251,30.7875,3.4125001
60.71428571428571,-0.3815625,0.9744625,-0.908875,2.7820501,8.78895,3.28905,-13.556251,30.7875,3.4125001
60.78042328042328,-0.3815625,0.9744625,-0.908875,5.36205,10.066051,4.065,-21.35625,26.5125,4.74375
60.84656084656084,-0.205975,-1.4529625,0.6565625,9.61305,3.7860003,-0.77205,-21.35625,26.5125,4.74375
60.91269841269841,-1.8151375,-1.490225,-0.198,2.253,4.8349504,5.6980505,-27.7875,20.04375,4.8
60.978835978835974,-1.6979874,0.3933875,-0.9428375,4.02495,10.806001,5.7300005,-27.7875,20.04375,4.8
61.044973544973544,0.06215,0.751025,0.0776875,8.89395,7.7539506,4.23495,-27.7875,20.04375,4.8
61.11111111111111,1.0902375,0.832975,-1.8975,6.2580004,7.1599503,4.6470003,-31.800001,13.14375,6.24375
61.17724867724868,0.544225,-0.166375,-2.8116,3.8860502,7.05,4.1340003,-31.800001,13.14375,6.24375
61.24338624338624,0.234575,-0.9730875,-3.2384,2.1019502,4.53795,3.1909502,-33.1875,5.7562504,6.8437505
61.3095238095238,0.234575,-0.9730875,-3.2384,-3.8509502,1.5180001,3.9520502,-33.1875,5.7562504,6.8437505
61.37566137566137,-0.3559875,0.1964875,-4.3536625,-1.9780501,3.04305,9.042001,-33.1875,5.7562504,6.8437505
61.441798941798936,0.037675,-0.0972125,-2.53275,-7.8769503,4.1470504,4.8910503,-33.1875,5.7562504,6.8437505
61.507936507936506,-1.1308,-0.6197125,-2.5711124,-10.95705,2.7220502,4.611,-31.612501,-3.6562502,6.1875005
61.57407407407407,-1.3223375,0.5891875,-3.849175,-9.22305,1.44105,2.73795,-26.2875,-12.056251,5.34375
61.64021164021164,-0.826375,1.2639,-4.4845624,-6.76095,-0.42600003,3.4369502,-26.2875,-12.056251,5.34375
61.7063492063492,0.153725,1.3905375,-3.6683624,-1.82895,-3.9610503,2.01705,-26.2875,-12.056251,5.34375
61.77248677248677,0.71885,0.7360375,-0.9823,-1.82895,-3.9610503,2.01705,-16.987501,-16.612501,4.3125
61.838624338624335,0.71885,0.7360375,-0.9823,-8.78505,-12.576,-4.2709503,-16.987501,-16.612501,4.3125
61.9047619047619,0.8592375,2.7985375,-2.557225,-5.9869504,-5.03595,1.7200501,-16.987501,-16.612501,4.3125
61.97089947089947,0.8177125,2.4462626,-5.6392875,-4.938,-9.003,-3.4090502,-7.6125,-17.212502,3.54375
62.03703703703703,0.8177125,2.4462626,-5.6392875,9.450001,-9.175051,3.8250003,-7.6125,-17.212502,3.54375
62.1031746031746,3.0749125,-1.230625,-2.6169,7.7779503,-12.384001,11.614051,-7.6125,-17.212502,3.54375
62.169312169312164,0.8347625,-1.4466375,-0.1969,7.7779503,-12.384001,11.614051,-7.6125,-17.212502,3.54375
62.235449735449734,0.8347625,-1.4466375,-0.1969,3.1200001,-5.5750504,3.79395,-1.5562501,-13.14375,4.9875
62.3015873015873,2.2097626,-0.1419,-3.3958375,6.9430504,-5.5009503,4.16295,-1.5562501,-13.14375,4.9875
62.36772486772487,-0.826375,1.08625,-0.3246375,5.886,-4.761,6.76695,2.9437501,-6.4875,5.34375
62.43386243386243,-0.826375,1.08625,-0.3246375,9.196051,-3.70005,7.1950502,2.9437501,-6.4875,5.34375
62.5,-0.2996125,-1.1869,-1.624975,14.187,-5.8840504,8.26095,2.9437501,-6.4875,5.34375
62.56613756613756,1.1072875,-2.488475,-3.5363624,7.0140004,-5.10405,2.25405,2.9437501,-6.4875,5.34375
62.632275132275126,0.069575,-2.4512124,-4.701675,2.9190001,1.04805,1.296,5.64375,0.0,4.8
62.698412698412696,1.0987625,0.3188625,-3.9461124,22.843052,9.012,4.22505,5.64375,0.0,4.8
62.76455026455026,-1.7502375,-0.5952375,-2.222,10.630951,6.9880505,4.51305,5.45625,5.8875003,5.5125003
62.83068783068783,-1.7502375,-0.5952375,-2.222,10.630951,6.9880505,4.51305,5.45625,5.8875003,5.5125003
62.89682539682539,-1.435225,-1.23695,-4.3558626,6.1470003,4.782,3.7540503,1.3125,11.043751,6.05625
62.96296296296296,-0.9477875,-1.56365,-4.0013876,3.69195,5.4739504,3.423,1.3125,11.043751,6.05625
63.029100529100525,-0.9477875,-1.56365,-4.0013876,-9.754951,9.984,2.523,1.3125,11.043751,6.05625
63.095238095238095,-0.8498875,1.8173375,-5.142225,-4.29195,7.24695,2.9920502,-4.3125,11.887501,7.0125003
63.16137566137566,-0.681725,1.5151125,-1.91345,-8.28195,13.335001,5.7850504,-4.3125,11.887501,7.0125003
63.22751322751322,-0.3911875,-0.491975,-1.3696375,-8.28195,13.335001,5.7850504,-7.8562503,8.700001,7.9125004
63.29365079365079,-0.3911875,-0.491975,-1.3696375,-11.079,3.8410501,3.4690502,-7.8562503,8.700001,7.9125004
63.359788359788354,-0.24007499,-0.91987497,-3.6757874,-12.753,-10.485001,-1.845,-7.8562503,8.700001,7.9125004
63.425925925925924,-0.3359125,0.553025,-0.8173,-12.753,-10.485001,-1.845,-9.543751,3.6000001,6.7125
63.49206349206349,-0.3359125,0.553025,-0.8173,-4.63395,-3.6330001,-1.0000501,-9.543751,3.6000001,6.7125
63.55820105820106,1.021075,-0.248325,-2.6604874,-6.2700005,-6.59595,2.7120001,-5.8875003,-1.3125,5.64375
63.62433862433862,0.219725,-0.61654997,-3.8576999,-4.656,-10.00605,3.52395,-0.35625002,-6.1125,7.3125005
63.69047619047619,-1.1638,0.6446,-5.813775,11.433001,-6.4399505,2.04405,-0.35625002,-6.1125,7.3125005
63.75661375661375,-1.1638,0.6446,-5.813775,11.433001,-6.4399505,2.04405,-0.35625002,-6.1125,7.3125005
63.822751322751316,0.169675,-0.2781625,-2.66585,3.9300003,-10.549951,5.289,4.55625,-6.9,8.700001
63.888888888888886,-1.96515,-0.0972125,-4.618625,15.129001,-4.35195,-1.7350501,4.55625,-6.9,8.700001
63.95502645502645,-1.041425,1.256475,-4.244075,15.129001,-4.35195,-1.7350501,4.55625,-6.9,8.700001
64.02116402116401,-1.041425,1.256475,-4.244075,9.74895,-2.95005,1.8040501,7.9875,-5.5125003,10.6125
64.08730158730158,0.9070875,2.00255,-5.38175,-1.116,-0.37605003,2.5560002,7.9875,-5.5125003,10.6125
64.15343915343915,-0.7583125,0.8105625,-3.05855,3.1579502,5.4859505,3.351,8.700001,-3.35625,11.45625
64.21957671957672,-0.3997125,-0.6920375,-1.6740625,15.627001,5.6350503,-1.5649501,8.700001,-3.35625,11.45625
64.28571428571428,0.58575,-1.3178,-2.8787,15.627001,5.6350503,-1.5649501,8.700001,-3.35625,11.45625
64.35185185185185,0.58575,-1.3178,-2.8787,5.2920003,3.3979502,0.61605,7.4437504,-0.84375006,11.45625
64.41798941798942,-1.4361875,-0.099275,-2.690325,3.525,7.0620003,-0.28605002,7.4437504,-0.84375006,11.45625
64.48412698412697,-0.8328375,0.636075,-4.98575,-7.42395,10.386001,2.7259502,2.7,1.0125,13.200001
64.55026455026454,-0.633875,1.6597625,-4.13545,-4.17705,9.531,2.87205,2.7,1.0125,13.200001
64.61640211640211,1.4158375,1.863125,-5.4179125,-5.1940503,2.5879502,0.07995001,2.7,1.0125,13.200001
64.68253968253968,0.478225,1.0297375,-3.18835,-8.169001,7.5700502,2.5870502,2.7,1.0125,13.200001
64.74867724867724,2.049025,-0.494175,-1.4111625,-9.474,1.23705,-1.3920001,-0.7875,0.0,14.400001
64.81481481481481,-1.107425,2.7165875,-3.834325,-5.53695,1.07895,-2.08005,-0.7875,0.0,14.400001
64.88095238095238,-1.107425,2.7165875,-3.834325,-7.8430505,1.3480501,-5.5669503,-3.1875002,-2.5875,15.900001
64.94708994708995,-2.268475,0.4838625,0.3128125,-11.188951,4.95195,-4.7530503,-3.1875002,-2.5875,15.900001
65.0132275132275,-2.1236875,-2.668325,-1.4185874,-13.981951,3.82905,-4.3120503,-3.1875002,-2.5875,15.900001
65.07936507936508,-0.6837875,-0.785675,-1.609025,-12.133051,1.4790001,-3.2749503,-6.24375,-5.2875004,18.056252
65.14550264550265,-0.0218625,0.6956125,-1.8294375,-8.658,-0.294,-3.0210001,-7.0875,-12.4875,19.5
65.2116402116402,0.26221249,-0.296175,-2.1476126,-6.0760503,-2.28705,-2.8939502,-7.0875,-12.4875,19.5
65.27777777777777,0.8933375,-1.393425,-2.4732125,-6.0760503,-2.28705,-2.8939502,-7.0875,-12.4875,19.5
65.34391534391534,0.8933375,-1.393425,-2.4732125,-6.4999504,-4.0140004,-0.19005,-2.7,-19.556252,19.44375
65.41005291005291,0.6336,-1.785025,-2.5488374,-7.122,-5.0869503,0.34305,-2.7,-19.556252,19.44375
65.47619047619047,1.100825,-1.2199,-2.4635875,-6.8539505,-8.93295,2.4409502,6.3,-22.2,19.743752
65.54232804232804,1.0231375,0.733975,-1.35685,-4.01595,-9.196951,3.39,6.3,-22.2,19.743752
65.60846560846561,0.341,0.6700375,-1.1451,-3.4699502,-7.9440002,3.933,6.3,-22.2,19.743752
65.67460317460318,0.35805,0.686125,0.188375,-3.20895,-7.6900506,4.15605,15.712501,-18.956251,19.85625
65.74074074074073,0.35805,0.686125,0.188375,-3.20895,-7.6900506,4.15605,15.712501,-18.956251,19.85625
65.8068783068783,1.413775,1.5076874,0.21285,-6.7990503,-5.2260003,2.5800002,23.1,-12.900001,18.84375
65.87301587301587,0.8987,-0.4472875,-0.34375,-6.9160504,-7.8960004,4.3159504,23.1,-12.900001,18.84375
65.93915343915343,0.8987,-0.4472875,-0.34375,-6.9160504,-7.8960004,4.3159504,23.1,-12.900001,18.84375
66.005291005291,-0.6945125,-0.31955,-1.168475,-1.6470001,-7.9150505,4.2900004,27.000002,-4.9875,18.900002
66.07142857142857,-0.6083,-0.044,-0.19373749,-1.0009501,-7.7310004,2.5440001,27.000002,-4.9875,18.900002
66.13756613756614,-0.80189997,-0.58134997,-0.0979,-0.15795001,-11.244,5.3560505,27.000002,-4.9875,18.900002
66.2037037037037,-1.2936,-1.9765625,-1.0088375,-2.7919502,-10.927951,2.15595,28.0125,1.7437501,17.34375
66.26984126984127,-1.4905,-3.517525,-2.9128,-2.42595,-11.115001,0.97095007,28.0125,1.7437501,17.34375
66.33597883597884,-2.022625,-2.4002,-4.0343876,1.91295,-10.939951,1.59105,29.75625,7.8562503,14.45625
66.4021164021164,-0.95094997,-2.1638374,-4.159925,5.34,-8.27505,-0.93000007,29.75625,7.8562503,14.45625
66.46825396825396,-0.95094997,-2.1638374,-4.159925,7.623,-5.2110004,-1.8550501,29.75625,7.8562503,14.45625
66.53439153439153,-0.9051625,-1.10715,-2.8562875,7.4500504,-2.80905,-2.39595,28.312502,16.2,13.25625
66.6005291005291,-0.8669375,-0.590975,-2.214575,7.29195,-0.82395005,-4.08705,28.312502,16.2,13.25625
66.66666666666666,-0.8669375,-0.590975,-2.214575,7.29195,-0.82395005,-4.08705,22.743752,23.04375,12.900001
66.73280423280423,-0.5721375,-0.1706375,-2.2295625,8.122951,0.29595003,-4.46505,22.743752,23.04375,12.900001
66.7989417989418,-0.517825,0.1423125,-1.4856875,8.431951,2.868,-3.9259503,22.743752,23.04375,12.900001
66.86507936507937,-0.1538625,0.0666875,-0.697125,8.253,2.8540502,-3.6340501,22.743752,23.04375,12.900001
66.93121693121692,0.0919875,-0.4706625,-1.2728375,8.281051,3.3120003,-3.5089502,14.45625,25.987501,13.6125
66.9973544973545,0.0589875,-0.7027625,-1.5676374,7.1250005,4.0999503,-4.45095,14.45625,25.987501,13.6125
67.06349206349206,0.0589875,-0.7027625,-1.5676374,7.1250005,4.0999503,-4.45095,5.7562504,25.556252,15.1125
67.12962962962962,-0.19855,0.00385,-2.149675,6.2580004,7.45305,-4.39095,5.7562504,25.556252,15.1125
67.19576719576719,0.0493625,-0.230175,-2.0890374,5.06505,7.4689503,-4.8510003,5.7562504,25.556252,15.1125
67.26190476190476,0.3122625,-0.429275,-1.8986,4.03695,8.190001,-4.7449503,-2.5875,22.9125,16.3125
67.32804232804233,0.3122625,-0.429275,-1.8986,4.03695,8.190001,-4.7449503,-2.5875,22.9125,16.3125
67.39417989417989,0.218625,-1.3487375,-1.837825,1.245,9.547951,-4.3429503,-10.5,18.6,17.212502
67.46031746031746,0.6782875,-1.671175,-2.2262626,-1.9110001,7.932,-4.8580503,-10.5,18.6,17.212502
67.52645502645503,0.0738375,-1.0784125,-1.478125,-1.9110001,7.932,-4.8580503,-10.5,18.6,17.212502
67.5925925925926,0.0738375,-1.0784125,-1.478125,-3.1009502,7.9030504,-3.8899503,-16.612501,12.6,19.800001
67.65873015873015,-0.0325875,-0.952875,-1.168475,-6.6790504,6.051,-2.532,-16.612501,12.6,19.800001
67.72486772486772,-0.46461248,-0.7005625,-1.088725,-6.71295,7.9290004,-5.0350504,-20.7,5.8125,22.9125
67.79100529100529,-0.5284125,-0.0099,-0.874775,-6.32205,6.564,-5.4900002,-20.7,5.8125,22.9125
67.85714285714285,-1.2830125,-0.32381248,-0.041525,-5.412,3.9769502,-4.3879504,-20.7,5.8125,22.9125
67.92328042328042,-1.5181375,-0.2919125,-1.903825,-7.8580503,6.7510505,-1.797,-20.7,5.8125,22.9125
67.98941798941799,-1.40855,-0.7357625,-2.0805125,-8.64795,3.9799502,-0.27600002,-20.75625,-2.5875,25.25625
68.05555555555556,-0.78595,-0.724075,-3.2841876,-10.62195,3.2350502,1.53795,-17.212502,-10.5,25.743752
68.12169312169311,-0.5550875,-0.3152875,-3.58325,-10.096951,-1.125,-0.80805004,-17.212502,-10.5,25.743752
68.18783068783068,-0.6732,-0.3579125,-3.6427875,-8.394,-3.6109502,0.49905002,-17.212502,-10.5,25.743752
68.25396825396825,-0.713625,-1.6435375,-2.982925,-8.06595,-6.8179502,1.4140501,-17.212502,-10.5,25.743752
68.32010582010582,-0.4060375,-1.76165,-2.7489,-6.4540505,-7.49595,2.4439502,-9.4875,-15.3,25.312502
68.38624338624338,-0.4060375,-1.76165,-2.7489,-6.4540505,-7.49595,2.4439502,-9.4875,-15.3,25.312502
68.45238095238095,-0.1720125,-0.9241375,-2.1795125,-5.8960505,-8.0130005,1.9069501,-0.41250002,-16.2,23.8875
68.51851851851852,-0.3166625,0.2167,-1.408,-4.42995,-7.8870006,2.1990001,-0.41250002,-16.2,23.8875
68.58465608465607,-0.3900875,0.5966125,-1.8431875,-2.1790502,-8.454,2.15595,-0.41250002,-16.2,23.8875
68.65079365079364,-0.188925,0.929775,-1.6548125,0.46395,-9.882001,0.65400004,8.75625,-13.9875,21.54375
68.71693121693121,-0.188925,0.929775,-1.6548125,0.46395,-9.882001,0.65400004,8.75625,-13.9875,21.54375
68.78306878306879,-0.077275,1.05105,-0.8949875,-1.0009501,-8.892,3.14505,16.3125,-8.94375,20.212502
68.84920634920634,1.0231375,0.2732125,-0.5949625,1.01205,-10.582951,2.664,16.3125,-8.94375,20.212502
68.91534391534391,-0.0836,0.6765,0.6758125,1.01205,-10.582951,2.664,16.3125,-8.94375,20.212502
68.98148148148148,-0.0836,0.6765,0.6758125,-0.864,-8.62695,1.524,21.4125,-2.1000001,17.456251
69.04761904761904,-0.18053749,0.9021375,1.19185,-2.1979501,-9.814951,3.14505,21.4125,-2.1000001,17.456251
69.1137566137566,-0.1315875,0.456225,0.6150375,-1.0489501,-10.341001,2.21595,24.900002,4.8,14.343751
69.17989417989418,-0.061325,-0.363275,-0.73645,0.96000004,-9.52995,3.9259503,24.900002,4.8,14.343751
69.24603174603175,-0.061325,-0.363275,-0.73645,0.96000004,-9.52995,3.9259503,24.900002,4.8,14.343751
69.3121693121693,-0.49555,-1.556225,-1.725075,1.08405,-8.89995,2.07495,27.54375,12.3,11.75625
69.37830687830687,0.232375,-2.7682874,-1.5005375,3.38595,-9.9529505,1.914,27.54375,12.3,11.75625
69.44444444444444,0.3048375,-2.21705,-2.264625,3.4410002,-9.361951,1.3750501,27.54375,12.3,11.75625
69.51058201058201,0.1472625,-1.8297125,-3.6279376,6.0060005,-7.8910503,1.5600001,28.44375,20.94375,9.84375
69.57671957671957,-0.306075,-1.5807,-4.701675,7.2850504,-4.1839504,1.62705,28.44375,20.94375,9.84375
69.64285714285714,-0.175175,-1.898875,-5.3040624,9.57495,-0.14295001,-0.846,23.75625,28.687502,7.8562503
69.70899470899471,-0.175175,-1.898875,-5.3040624,9.57495,-0.14295001,-0.846,23.75625,28.687502,7.8562503
69.77513227513226,0.02915,-2.8492749,-5.3997626,7.965,3.11805,-3.459,23.75625,28.687502,7.8562503
69.84126984126983,-0.143275,-3.0971875,-4.227025,5.2039504,6.0060005,-4.22805,23.75625,28.687502,7.8562503
69.9074074074074,-0.649825,-2.782175,-3.591775,1.5780001,7.8550506,-5.14995,14.400001,30.000002,8.043751
69.97354497354497,-0.241175,-2.4693625,-3.7555375,-1.3939501,9.60795,-4.80495,14.400001,30.000002,8.043751
70.03968253968253,-0.03575,-2.079825,-3.5343,-2.766,8.66895,-5.8180504,6.1125,25.687502,11.043751
70.1058201058201,-0.03575,-2.079825,-3.5343,-2.766,8.66895,-5.8180504,6.1125,25.687502,11.043751
70.17195767195767,0.61985,-1.56585,-2.379575,-8.203051,2.9950502,-6.8290505,6.1125,25.687502,11.043751
70.23809523809524,-0.0506,-1.228425,-0.941875,-7.8,5.2519503,-5.66295,6.1125,25.687502,11.043751
70.3042328042328,-0.8157875,0.2220625,-0.4214375,-8.2240505,1.4629501,-5.5399504,2.4562502,19.25625,14.043751
70.37037037037037,-1.6108125,0.3944875,-1.4834875,-8.694,6.3889503,-1.3420501,2.4562502,19.25625,14.043751
70.43650793650794,-1.6108125,0.3944875,-1.4834875,-8.694,6.3889503,-1.3420501,1.3875,12.4875,17.1
70.50264550264549,-1.6885,0.3509,-1.6633375,-9.508051,2.5090501,-1.5289501,1.3875,12.4875,17.1
70.56878306878306,-1.21495,-1.049675,-2.2466125,-10.828051,0.50895,-0.65895003,1.3875,12.4875,17.1
70.63492063492063,-1.190475,-1.6478,-2.9148624,-10.38405,-2.21295,-0.21900001,0.3,5.2875004,19.25625
70.7010582010582,-1.190475,-1.6478,-2.9148624,-10.38405,-2.21295,-0.21900001,0.3,5.2875004,19.25625
70.76719576719576,-0.551925,-1.898875,-2.9990125,-8.98095,-5.4799504,1.31295,0.65625,-1.25625,20.2875
70.83333333333333,-0.5710375,-2.3991,-3.0850875,-4.03305,-8.47305,3.7729502,0.65625,-1.25625,20.2875
70.8994708994709,-0.0644875,-1.865875,-2.4871,-4.03305,-8.47305,3.7729502,0.65625,-1.25625,20.2875
70.96560846560847,-0.0644875,-1.865875,-2.4871,-4.4809504,-8.524051,3.8830502,3.4125001,-5.5875,20.04375
71.03174603174602,-0.1208625,0.20075,-2.1880374,-3.4320002,-7.65705,3.5479503,3.4125001,-5.5875,20.04375
71.0978835978836,-0.27513748,2.0046124,-2.1049874,-0.49800003,-9.283051,3.83505,8.15625,-8.043751,18.487501
71.16402116402116,0.1313125,1.6842375,-1.086525,1.2229501,-9.493951,5.3320503,8.15625,-8.043751,18.487501
71.23015873015872,0.4569125,-0.2674375,-0.67155,1.7760001,-8.6959505,4.4220004,8.15625,-8.043751,18.487501
71.29629629629629,0.134475,-1.0027875,-1.414325,1.8460501,-8.278951,4.5490503,8.15625,-8.043751,18.487501
71.36243386243386,-0.126225,-2.3692625,-1.4771625,1.09905,-8.65305,3.21495,16.0125,-5.9437504,17.04375
71.42857142857143,-1.138225,-1.0443125,-2.1901,3.726,-6.71295,3.6910503,16.0125,-5.9437504,17.04375
71.49470899470899,-1.138225,-1.0443125,-2.1901,5.6899505,-6.95205,2.5560002,21.84375,0.6,12.656251
71.56084656084656,-0.795575,-1.3615249,-3.180925,8.3560505,-5.57805,0.35295,21.84375,0.6,12.656251
71.62698412698413,-0.2145,-1.7584875,-3.4128876,10.141951,-2.3370001,-0.33795002,21.84375,0.6,12.656251
71.69312169312168,-0.2591875,-2.0607126,-2.966975,9.726001,-1.197,-2.94405,21.84375,8.45625,8.1
71.75925925925925,-1.0318,0.1178375,-0.9504,12.93,1.4100001,-1.47105,21.84375,8.45625,8.1
71.82539682539682,-1.0318,0.1178375,-0.9504,13.107,1.18005,-0.94395006,17.04375,14.812501,4.9125004
71.89153439153439,0.42185,-1.089,-0.31075,6.7939506,0.38205,-1.83105,17.04375,14.812501,4.9125004
71.95767195767195,0.9273,-3.85275,-1.9294,4.866,0.56895,-3.72705,17.04375,14.812501,4.9125004
72.02380952380952,0.447425,-1.72975,-1.42175,5.14905,1.60905,-5.4139504,11.45625,21.1875,1.9125
72.08994708994709,0.447425,-1.72975,-1.42175,5.14905,1.60905,-5.4139504,11.45625,21.1875,1.9125
72.15608465608466,-0.109175,-0.1695375,-2.7850626,4.54005,7.314,-5.4469504,3.8437502,25.743752,1.85625
72.22222222222221,-0.7030375,0.75734997,-2.6382124,5.0670004,8.467951,-5.2000504,3.8437502,25.743752,1.85625
72.28835978835978,-0.7349375,0.66055,-1.5591125,3.25395,11.023951,-3.01605,3.8437502,25.743752,1.85625
72.35449735449735,-0.7349375,0.66055,-1.5591125,3.25395,11.023951,-3.01605,-6.0,24.712502,3.4875002
72.42063492063491,-0.076175,0.700975,-0.9471,4.0680003,8.973001,-2.5159502,-6.0,24.712502,3.4875002
72.48677248677248,0.1951125,-0.2748625,-0.9174,1.8100501,10.149,-3.6079502,-6.0,24.712502,3.4875002
72.55291005291005,0.6804875,-0.94325,-1.29085,0.44205,9.94095,-5.02995,-14.812501,19.556252,6.1125
72.61904761904762,0.6804875,-0.94325,-1.29085,0.44205,9.94095,-5.02995,-14.812501,19.556252,6.1125
72.68518518518518,0.755975,-0.77715,-1.03125,-0.53400004,8.379001,-5.184,-21.900002,12.4875,7.9875
72.75132275132275,0.7772875,-0.6527125,-1.1642125,-1.4800501,7.1389503,-5.2390504,-21.900002,12.4875,7.9875
72.81746031746032,1.2434125,-0.9156125,-1.88045,-4.809,5.4529505,-7.5670505,-21.900002,12.4875,7.9875
72.88359788359789,-0.00275,0.3625875,-1.200375,-6.9040504,5.11695,-6.3430505,-26.8875,4.2562504,11.512501
72.94973544973544,-0.00275,0.3625875,-1.200375,-6.9040504,5.11695,-6.3430505,-26.8875,4.2562504,11.512501
73.01587301587301,-0.126225,0.91162497,-1.3770624,-3.4510503,5.36205,-6.6829505,-27.54375,-4.6125,15.187501
73.08201058201058,-0.2486,0.535975,-0.5566,-2.2410002,7.0999503,-5.9089503,-27.54375,-4.6125,15.187501
73.14814814814814,-0.356125,-0.4494875,-0.5182375,-3.5629501,1.17495,-5.53305,-27.54375,-4.6125,15.187501
73.21428571428571,-1.091475,0.160325,-2.7520626,-6.7060504,6.8869505,-3.80205,-24.712502,-12.4875,17.212502
73.28042328042328,-0.6774625,-1.5456375,-1.611225,-8.61705,3.0240002,-5.3749504,-24.712502,-12.4875,17.212502
73.34656084656085,0.22385,-3.3345125,-3.572525,-11.307,0.06195,-2.463,-20.15625,-20.15625,19.143751
73.4126984126984,0.22385,-3.3345125,-3.572525,-11.307,0.06195,-2.463,-20.15625,-20.15625,19.143751
73.47883597883597,0.23773749,-2.4107876,-4.178075,-7.9030504,-6.2200503,0.38595003,-20.15625,-20.15625,19.143751
73.54497354497354,0.8113875,-0.0886875,-3.8801124,-5.36205,-8.239051,0.20205002,-20.15625,-20.15625,19.143751
73.6111111111111,1.07745,-0.199375,-4.0195374,-3.7930503,-8.33205,2.391,-11.700001,-24.35625,18.6
73.67724867724867,1.07745,-0.199375,-4.0195374,-3.7930503,-8.33205,2.391,-11.700001,-24.35625,18.6
73.74338624338624,1.3264625,-0.8058875,-3.25545,-2.184,-9.40305,1.7899501,-2.5125,-22.143751,18.1875
73.80952380952381,1.0720875,-0.8602,-2.0933,-1.0890001,-10.708051,1.9090501,-2.5125,-22.143751,18.1875
73.87566137566137,-0.0869,-0.6452875,-1.5643375,1.21395,-10.437,2.35305,-2.5125,-22.143751,18.1875
73.94179894179894,-0.928675,-0.297275,-1.2153625,3.5730002,-9.58695,0.26895002,5.15625,-15.712501,17.5125
74.0079365079365,0.4164875,-0.7750875,-0.155375,1.86705,-9.345,1.605,5.15625,-15.712501,17.5125
74.07407407407408,0.4164875,-0.7750875,-0.155375,1.86705,-9.345,1.605,5.15625,-15.712501,17.5125
74.14021164021163,0.3133625,0.1753125,-0.791725,3.9919503,-8.502001,2.01705,10.9125,-8.043751,16.25625
74.2063492063492,-0.4720375,0.6424,-0.8630875,3.9919503,-8.502001,2.01705,10.9125,-8.043751,16.25625
74.27248677248677,-0.4720375,0.6424,-0.8630875,5.65395,-9.022051,3.8089502,10.9125,-8.043751,16.25625
74.33862433862433,-0.533775,-0.0408375,-1.2153625,4.1140504,-7.0150504,-1.6369501,10.9125,-8.043751,16.25625
74.4047619047619,0.7379625,-0.3482875,-1.35795,6.80805,-6.4620004,2.25,14.887501,0.4875,14.1
74.47089947089947,0.7379625,-0.3482875,-1.35795,6.80805,-6.4620004,2.25,14.887501,0.4875,14.1
74.53703703703704,0.1739375,-0.458975,-1.5335375,6.4900503,-4.893,1.6870501,16.5,9.4125,11.212501
74.6031746031746,-0.24213749,-0.6336,-0.828025,6.4900503,-4.893,1.6870501,16.5,9.4125,11.212501
74.66931216931216,-0.24213749,-0.6336,-0.828025,8.523001,-7.0960503,0.072,16.5,9.4125,11.212501
74.73544973544973,-0.5072375,-1.9350375,-2.0986624,8.523001,-7.0960503,0.072,16.5,9.4125,11.212501
74.8015873015873,-0.5072375,-1.9350375,-2.0986624,8.004001,-5.6400003,-1.86705,16.087502,18.4125,8.75625
74.86772486772486,-0.8817875,-1.39975,-1.6399624,8.092051,-3.11295,-3.2719502,16.087502,18.4125,8.75625
74.93386243386243,-0.958375,-1.0773125,-1.5708,8.05095,-1.0849501,-2.9200501,12.95625,27.243752,8.400001
75.0,-1.6075125,-0.54945,-1.0929875,8.75805,2.1739502,-4.0680003,12.95625,27.243752,8.400001
75.06613756613756,-1.124475,0.7755,-0.86845,10.458,4.4710503,-3.4830003,12.95625,27.243752,8.400001
75.13227513227513,0.216425,0.2519,-0.105325,9.723001,1.5300001,-3.6100502,12.95625,27.243752,8.400001
75.1984126984127,0.80396247,-1.2007875,-1.6900125,8.16195,-0.15495001,-3.7900503,5.34375,32.287502,9.4875
75.26455026455027,-0.026125,-1.0443125,-1.4399,6.729,1.60905,-5.61495,5.34375,32.287502,9.4875
75.33068783068782,-0.026125,-1.0443125,-1.4399,9.163051,1.3050001,-6.0000005,-2.5125,33.0,10.856251
75.39682539682539,-0.649825,-0.6219125,-0.7214625,7.5100503,4.3890004,-4.9420505,-2.5125,33.0,10.856251
75.46296296296296,-1.1276375,-0.297275,-0.5033875,6.84,5.6470504,-4.7239504,-2.5125,33.0,10.856251
75.52910052910053,-1.1276375,-0.297275,-0.5033875,6.84,5.6470504,-4.7239504,-9.3,30.4125,13.312501
75.59523809523809,-0.974325,-0.61435,-1.184425,5.781,7.5720005,-4.51305,-9.3,30.4125,13.312501
75.66137566137566,0.3102,-0.2930125,-1.9613,6.4129505,6.885,-4.4290504,-9.3,30.4125,13.312501
75.72751322751323,-0.8977375,-0.02805,-2.7583876,2.5570502,9.41895,-5.7900004,-14.887501,26.04375,16.2
75.79365079365078,-1.04665,0.258225,-2.14115,2.9959502,9.3490505,-3.5479503,-14.887501,26.04375,16.2
75.85978835978835,-1.0594375,0.2167,-3.376725,-0.18900001,8.97795,-2.9970002,-14.887501,26.04375,16.2
75.92592592592592,-1.0594375,0.2167,-3.376725,-0.18900001,8.97795,-2.9970002,-19.556252,19.3875,18.956251
75.9920634920635,-0.8647375,-0.626175,-3.098975,-3.20895,7.6320004,-2.18505,-19.556252,19.3875,18.956251
76.05820105820105,-0.6444625,-0.9708875,-2.346575,-5.66895,6.55905,-0.52305,-19.556252,19.3875,18.956251
76.12433862433862,-1.056275,1.306525,-1.0077375,-5.5729504,8.79105,-0.882,-21.7875,10.087501,21.300001
76.19047619047619,-0.7264125,-0.0460625,-0.76835,-4.296,3.7930503,0.64695,-21.7875,10.087501,21.300001
76.25661375661375,-0.7264125,-0.0460625,-0.76835,-11.32995,3.14595,-0.91605,-20.8875,0.54375005,23.15625
76.32275132275132,0.2963125,0.0891,0.6587625,-9.834001,2.0370002,1.1689501,-20.8875,0.54375005,23.15625
76.38888888888889,-1.3160125,-1.165725,-1.9251375,-10.882951,2.80905,2.3050501,-20.8875,0.54375005,23.15625
76.45502645502646,-0.893475,0.78925,-2.5125375,-10.882951,2.80905,2.3050501,-18.243752,-8.587501,22.85625
76.52116402116401,-0.6721,0.65835,-1.9017625,-10.782001,-1.7890501,-1.011,-18.243752,-8.587501,22.85625
76.58730158730158,0.5038,1.01805,-2.853125,-11.07705,-4.3560004,-2.70195,-12.4125,-15.656251,21.300001
76.65343915343915,0.5038,1.01805,-2.853125,-7.2520504,-3.55395,-1.7370001,-12.4125,-15.656251,21.300001
76.71957671957672,0.32505,1.3937,-2.6956875,-6.9160504,-3.13995,-3.7110002,-12.4125,-15.656251,21.300001
76.78571428571428,-0.6061,0.7786625,-1.1004125,-7.0980005,-4.4500504,-3.2290502,-5.15625,-20.456251,20.2875
76.85185185185185,-0.17613749,0.59455,-0.810975,-7.5100503,-6.1909504,-2.63805,-5.15625,-20.456251,20.2875
76.91798941798942,0.6741625,-0.0056375,-1.480325,-5.7289505,-6.45195,-1.57395,2.7,-23.400002,19.743752
76.98412698412697,0.48785,-0.0471625,-0.889625,-11.686951,-9.498,-1.00695,2.7,-23.400002,19.743752
77.05026455026454,0.84975,0.7403,0.826925,-5.9110503,-8.227051,-1.7299501,2.7,-23.400002,19.743752
77.11640211640211,-0.00275,-0.6623375,-0.4789125,-3.55605,-8.557051,-1.641,2.7,-23.400002,19.743752
77.18253968253968,-0.388025,-1.0570999,-2.8722374,-3.55605,-8.557051,-1.641,10.44375,-24.187502,19.087502
77.24867724867724,0.3229875,-0.9134125,-2.869075,0.105,-8.866051,2.4169502,10.44375,-24.187502,19.087502
77.31481481481481,0.3229875,-0.9134125,-2.869075,4.7410502,-7.9110003,1.557,18.056252,-21.7875,18.487501
