timestamp,gyro_x,gyro_y,gyro_z,acc_x,acc_y,acc_z,mag_x,mag_y,mag_z
0.0,0.000275,0.000275,0.0,0.30600002,0.13605,9.870001,-10.556251,23.456251,-31.9125
0.10176390773405698,0.000275,0.000275,0.0,0.30405003,0.12900001,9.873,-10.556251,23.456251,-31.9125
0.20352781546811397,0.000275,0.000275,0.0,0.30405003,0.12900001,9.873,-10.6125,23.34375,-31.800001
0.30529172320217096,0.000275,0.000275,0.0,0.31095,0.13305001,9.873,-10.6125,23.34375,-31.800001
0.40705563093622793,0.000275,0.000275,0.0,0.30795002,0.13305001,9.870001,-10.6125,23.2875,-31.9125
0.508819538670285,0.000275,0.000275,0.0,0.30600002,0.12900001,9.86295,-10.6125,23.2875,-31.9125
0.6105834464043419,0.000275,-0.000825,-0.0009625,0.30600002,0.12900001,9.86295,-10.6125,23.2875,-31.9125
0.7123473541383989,-0.0006875,0.000275,0.0011,0.30600002,0.15,9.868051,-10.556251,23.1,-31.800001
0.8141112618724559,0.000275,0.000275,-0.0009625,0.31500003,0.13095,9.86295,-10.556251,23.1,-31.800001
0.9158751696065128,0.000275,0.000275,-0.0009625,0.31095,0.14295001,9.868051,-10.556251,23.1,-31.800001
1.01763907734057,0.001375,-0.000825,0.0,0.30795002,0.13305001,9.868051,-10.387501,22.9125,-31.9125
1.1194029850746268,-0.0006875,0.000275,0.0,0.31095,0.13305001,9.868051,-10.387501,22.9125,-31.9125
1.2211668928086838,-0.0006875,0.000275,0.0,0.30795002,0.12405001,9.87495,-10.387501,22.9125,-31.9125
1.3229308005427407,0.000275,0.000275,0.0011,0.30795002,0.14295001,9.865951,-10.3125,22.9125,-31.800001
1.4246947082767978,0.000275,0.000275,0.0011,0.31095,0.13800001,9.86295,-10.3125,22.9125,-31.800001
1.5264586160108546,0.000275,0.000275,0.0,0.30795002,0.13605,9.868051,-10.14375,22.85625,-31.9125
1.6282225237449117,0.000275,0.000275,0.0,0.31305,0.13305001,9.870001,-10.14375,22.85625,-31.9125
1.7299864314789688,0.0004125,0.000275,0.0,0.30795002,0.13605,9.865951,-10.5,22.800001,-31.44375
1.8317503392130257,0.0004125,-0.000825,0.0,0.31095,0.13800001,9.86295,-10.5,22.800001,-31.44375
1.9335142469470827,0.0004125,0.000275,0.0,0.30600002,0.13605,9.861,-10.5,22.987501,-31.500002
2.03527815468114,-0.0006875,0.000275,0.0,0.30405003,0.13305001,9.877951,-10.5,22.987501,-31.500002
2.1370420624151967,0.0004125,0.000275,-0.0009625,0.30405003,0.14295001,9.870001,-10.6875,22.987501,-31.44375
2.2388059701492535,0.0004125,0.000275,0.0011,0.31095,0.13305001,9.870001,-10.6875,22.987501,-31.44375
2.3405698778833104,0.0004125,0.000275,0.0011,0.31095,0.14505,9.868051,-10.6875,22.987501,-31.44375
2.4423337856173677,0.0004125,0.000275,0.0,0.31095,0.14505,9.868051,-10.743751,23.04375,-31.2
2.5440976933514245,0.0004125,0.000275,0.0,0.31305,0.13605,9.868051,-10.743751,23.04375,-31.2
2.6458616010854814,0.0004125,0.000275,0.0,0.30405003,0.13095,9.873,-10.8,23.2875,-31.2
2.7476255088195387,0.0004125,0.000275,0.0,0.30795002,0.13095,9.865951,-10.8,23.2875,-31.2
2.8493894165535956,0.0004125,0.000275,0.0,0.30795002,0.13095,9.865951,-10.8,23.2875,-31.2
2.9511533242876524,0.0004125,0.000275,0.0,0.29895002,0.13800001,9.870001,-10.556251,23.2875,-31.312502
3.0529172320217093,0.0004125,0.000275,0.0,0.31095,0.141,9.865951,-10.556251,23.2875,-31.312502
3.1546811397557666,0.0004125,0.000275,-0.0009625,0.30105,0.13095,9.865951,-10.556251,23.2875,-31.312502
3.2564450474898234,0.0004125,-0.000825,0.0,0.30795002,0.12900001,9.873,-10.6875,23.2875,-30.956251
3.3582089552238803,0.0004125,0.000275,0.0,0.31095,0.13605,9.873,-10.6875,23.2875,-30.956251
3.4599728629579376,0.001375,-0.000825,0.0,0.30600002,0.13305001,9.86295,-10.9125,23.400002,-30.843752
3.5617367706919945,0.000275,0.000275,0.0,0.30405003,0.12405001,9.86295,-11.043751,23.2875,-30.843752
3.6635006784260513,0.000275,0.000275,0.0,0.30795002,0.13095,9.8560505,-11.043751,23.2875,-30.843752
3.765264586160108,0.000275,-0.000825,0.0,0.30600002,0.13095,9.868051,-11.043751,23.2875,-30.843752
3.8670284938941655,0.000275,-0.000825,0.0,0.30600002,0.13095,9.868051,-10.9875,23.34375,-31.0125
3.9687924016282223,0.0004125,0.000275,0.0,0.31800002,0.12900001,9.87495,-10.9875,23.34375,-31.0125
4.07055630936228,0.0004125,-0.000825,0.0,0.30600002,0.14295001,9.865951,-10.9875,23.34375,-31.0125
4.1723202170963365,0.0004125,-0.000825,0.0,0.31095,0.13095,9.870001,-10.9875,23.2875,-31.143751
4.274084124830393,0.0004125,-0.000825,0.0,0.31305,0.126,9.865951,-10.9875,23.2875,-31.143751
4.37584803256445,-0.0006875,0.000275,0.0,0.30795002,0.13305001,9.868051,-10.9875,23.2875,-31.143751
4.477611940298507,-0.0006875,0.000275,0.0,0.30795002,0.13305001,9.868051,-10.9875,23.212502,-31.312502
4.579375848032564,-0.0006875,0.000275,-0.0009625,0.31800002,0.126,9.870001,-10.9875,23.212502,-31.312502
4.681139755766621,0.000275,0.000275,0.0,0.31305,0.13800001,9.868051,-11.15625,23.2875,-31.500002
4.7829036635006785,0.000275,0.000275,0.0,0.30795002,0.13305001,9.873,-11.15625,23.2875,-31.500002
4.884667571234735,0.000275,-0.000825,0.0,0.30795002,0.13305001,9.873,-11.1,23.7,-31.800001
4.986431478968792,0.001375,-0.000825,0.0,0.30795002,0.13605,9.868051,-11.1,23.7,-31.800001
5.088195386702849,0.000275,0.000275,0.0,0.31305,0.13605,9.880051,-11.043751,23.8125,-32.100002
5.189959294436906,-0.0006875,0.000275,0.0,0.29895002,0.14505,9.87495,-11.043751,23.8125,-32.100002
5.291723202170963,-0.0006875,0.000275,0.0,0.31305,0.141,9.86295,-11.043751,23.8125,-32.100002
5.39348710990502,0.001375,0.000275,0.0,0.31305,0.141,9.86295,-10.9875,23.75625,-32.04375
5.495251017639077,0.0004125,-0.000825,0.0,0.31995,0.141,9.87495,-10.9875,23.75625,-32.04375
5.597014925373134,0.0004125,0.000275,0.0,0.30105,0.13605,9.870001,-11.043751,23.8875,-32.100002
5.698778833107191,0.0004125,0.000275,0.0,0.30795002,0.13605,9.86295,-10.9125,24.0,-31.743752
5.800542740841248,0.0004125,-0.000825,0.0,0.31095,0.12900001,9.868051,-10.9125,24.0,-31.743752
5.902306648575305,0.0004125,0.000275,0.0,0.31305,0.13095,9.87495,-10.9875,24.056252,-31.312502
6.004070556309362,0.0004125,0.000275,0.0,0.30795002,0.13305001,9.868051,-11.043751,24.243752,-31.0125
6.105834464043419,0.0004125,0.000275,0.0,0.29895002,0.13095,9.868051,-11.043751,24.243752,-31.0125
6.207598371777476,-0.0006875,-0.000825,0.0,0.29895002,0.13095,9.868051,-11.043751,24.243752,-31.0125
6.309362279511533,-0.0006875,-0.000825,0.0,0.31095,0.126,9.877951,-11.212501,24.0,-31.0125
6.41112618724559,0.0004125,0.000275,0.0011,0.30405003,0.13305001,9.865951,-11.212501,24.0,-31.0125
6.512890094979647,0.0004125,0.000275,0.0,0.31095,0.12900001,9.865951,-11.043751,23.75625,-30.843752
6.614654002713704,0.0004125,0.000275,0.0,0.31095,0.13095,9.877951,-11.043751,23.75625,-30.843752
6.716417910447761,-0.0006875,0.000275,-0.0009625,0.31095,0.13095,9.877951,-11.043751,23.75625,-30.843752
6.8181818181818175,0.0004125,0.000275,0.0,0.31305,0.13305001,9.865951,-11.043751,23.75625,-30.843752
6.919945725915875,-0.0006875,0.000275,0.0,0.31305,0.13800001,9.868051,-11.043751,23.8125,-30.956251
7.021709633649932,0.0001375,0.000275,0.0001375,0.30405003,0.13095,9.868051,-11.043751,23.8125,-30.956251
7.123473541383989,0.0001375,0.000275,0.0001375,0.30405003,0.13095,9.868051,-10.9875,23.8125,-30.956251
7.225237449118046,0.0001375,-0.0006875,0.0001375,0.31500003,0.12900001,9.868051,-10.9875,23.8125,-30.956251
7.327001356852103,0.0001375,0.000275,0.0001375,0.30600002,0.13095,9.865951,-10.9875,23.8125,-30.956251
7.4287652645861595,0.0001375,0.000275,-0.0009625,0.31095,0.13305001,9.873,-11.043751,23.5125,-30.956251
7.530529172320216,0.0001375,0.000275,-0.0009625,0.30795002,0.126,9.877951,-11.043751,23.5125,-30.956251
7.632293080054274,0.0001375,0.000275,0.0001375,0.30600002,0.12900001,9.873,-11.2875,23.5125,-31.2
7.734056987788331,-0.000825,0.000275,0.0011,0.31305,0.12900001,9.880051,-11.2875,23.5125,-31.2
7.835820895522388,0.0001375,-0.0006875,0.0001375,0.31095,0.13305001,9.870001,-11.2875,23.212502,-31.2
7.937584803256445,0.0001375,-0.0006875,0.0001375,0.30600002,0.126,9.865951,-11.2875,23.212502,-31.2
8.039348710990502,0.0001375,0.000275,0.0001375,0.30600002,0.13095,9.868051,-11.212501,22.987501,-31.3875
8.14111261872456,0.0001375,0.000275,0.0001375,0.31305,0.13605,9.873,-11.212501,22.987501,-31.3875
8.242876526458616,0.0012375,0.000275,0.0001375,0.30795002,0.13095,9.865951,-11.212501,22.987501,-31.3875
8.344640434192673,-0.000825,0.000275,0.0001375,0.30600002,0.12900001,9.873,-11.212501,22.85625,-31.312502
8.44640434192673,-0.000825,-0.0006875,0.0001375,0.30105,0.13800001,9.873,-11.212501,22.85625,-31.312502
8.548168249660787,-0.000825,-0.0006875,0.0001375,0.30795002,0.126,9.877951,-11.212501,22.85625,-31.312502
8.649932157394844,-0.000825,-0.0006875,0.0001375,0.30795002,0.126,9.877951,-11.512501,22.800001,-31.44375
8.7516960651289,0.0001375,0.000275,0.0001375,0.31305,0.12900001,9.868051,-11.512501,22.800001,-31.44375
8.853459972862957,-0.000825,0.000275,0.0001375,0.30600002,0.12900001,9.86295,-11.34375,22.6875,-31.3875
8.955223880597014,-0.000825,0.000275,-0.0009625,0.30600002,0.126,9.873,-11.34375,22.6875,-31.3875
9.056987788331071,0.0001375,-0.0006875,0.0001375,0.30795002,0.13605,9.880051,-11.34375,22.6875,-31.3875
9.158751696065128,0.0001375,-0.0006875,0.0001375,0.30795002,0.13605,9.880051,-11.34375,22.612501,-31.612501
9.260515603799185,0.0012375,0.000275,0.0011,0.31095,0.12900001,9.865951,-11.34375,22.612501,-31.612501
9.362279511533242,-0.000825,0.000275,0.0001375,0.30795002,0.13095,9.868051,-11.34375,22.612501,-31.612501
9.4640434192673,-0.000825,0.000275,0.0001375,0.31305,0.126,9.868051,-11.512501,22.987501,-31.85625
9.565807327001357,0.0001375,0.000275,0.0001375,0.31095,0.13095,9.865951,-11.512501,22.987501,-31.85625
9.667571234735414,0.0001375,-0.0006875,0.0,0.31305,0.13305001,9.868051,-11.2875,22.9125,-31.9125
9.76933514246947,0.0001375,0.000275,-0.0009625,0.31305,0.12405001,9.873,-11.2875,22.9125,-31.9125
9.871099050203528,0.0001375,-0.0006875,0.0,0.31095,0.12105001,9.87495,-11.34375,22.9125,-31.85625
9.972862957937584,0.0001375,-0.0006875,0.0,0.30600002,0.13605,9.870001,-11.34375,22.9125,-31.85625
10.074626865671641,-0.000825,-0.0006875,0.0,0.30795002,0.141,9.877951,-11.45625,22.9125,-31.743752
10.176390773405698,-0.000825,0.000275,-0.0009625,0.30600002,0.13305001,9.865951,-11.45625,22.9125,-31.743752
10.278154681139755,-0.000825,0.000275,-0.0009625,0.31305,0.13305001,9.873,-11.45625,22.9125,-31.743752
10.379918588873812,0.0001375,0.000275,0.0001375,0.30795002,0.126,9.873,-11.34375,22.9125,-31.743752
10.481682496607869,-0.000825,0.000275,0.0001375,0.30600002,0.13305001,9.870001,-11.512501,22.987501,-31.743752
10.583446404341926,-0.000825,0.000275,0.0001375,0.31500003,0.13305001,9.868051,-11.512501,22.987501,-31.743752
10.685210312075982,0.0001375,-0.0006875,0.0001375,0.31500003,0.13305001,9.868051,-11.512501,22.987501,-31.743752
10.78697421981004,-0.000825,0.000275,0.0,0.29895002,0.13095,9.873,-11.587501,23.212502,-31.612501
10.888738127544098,-0.000825,0.000275,0.0,0.29895002,0.13095,9.873,-11.512501,23.2875,-31.44375
10.990502035278155,0.0001375,0.000275,0.0,0.30405003,0.13305001,9.87495,-11.512501,23.2875,-31.44375
11.092265943012212,0.0001375,0.000275,-0.0009625,0.30795002,0.13800001,9.870001,-11.512501,23.34375,-31.612501
11.194029850746269,0.0001375,0.000275,0.0011,0.30405003,0.13305001,9.86295,-11.512501,23.34375,-31.612501
11.295793758480325,-0.000825,0.000275,0.0,0.31500003,0.12900001,9.87495,-11.512501,23.34375,-31.612501
11.397557666214382,-0.000825,0.000275,0.0,0.31500003,0.12900001,9.87495,-11.75625,23.400002,-31.743752
11.49932157394844,-0.000825,0.000275,0.0,0.30600002,0.12900001,9.868051,-11.75625,23.400002,-31.743752
11.601085481682496,0.0001375,0.000275,0.0,0.30405003,0.13800001,9.868051,-11.75625,23.400002,-31.743752
11.702849389416553,0.0001375,0.000275,0.0,0.31095,0.13095,9.87495,-11.8125,23.5125,-31.743752
11.80461329715061,0.0001375,0.000275,0.0,0.30795002,0.13605,9.861,-11.8125,23.5125,-31.743752
11.906377204884667,0.0001375,-0.0006875,0.0,0.30795002,0.13605,9.861,-11.8125,23.7,-31.743752
12.008141112618723,0.0001375,0.000275,-0.0009625,0.31095,0.12405001,9.877951,-11.8125,23.7,-31.743752
12.10990502035278,0.0001375,0.000275,0.0,0.30795002,0.13605,9.87495,-11.8125,23.7,-31.743752
12.211668928086837,-0.000825,0.000275,0.0,0.31095,0.12900001,9.873,-11.700001,23.7,-31.743752
12.313432835820896,-0.000825,0.000275,0.0,0.31095,0.12900001,9.873,-11.700001,23.5125,-31.612501
12.415196743554953,0.0001375,0.000275,0.0,0.30105,0.126,9.868051,-11.700001,23.5125,-31.612501
12.51696065128901,0.0001375,-0.0006875,0.0,0.30795002,0.13605,9.865951,-11.700001,23.5125,-31.612501
12.618724559023066,0.0001375,0.000275,0.0,0.31095,0.13605,9.873,-11.34375,23.587502,-31.687502
12.720488466757123,0.0001375,0.000275,0.0,0.30105,0.12900001,9.86295,-11.34375,23.587502,-31.687502
12.82225237449118,0.0001375,0.000275,0.0,0.31995,0.13095,9.868051,-11.34375,23.587502,-31.687502
12.924016282225237,0.0001375,0.000275,0.0,0.31995,0.13095,9.868051,-11.15625,23.456251,-31.687502
13.025780189959294,-0.000825,-0.0006875,0.0,0.31305,0.126,9.865951,-10.9875,23.5125,-31.612501
13.12754409769335,-0.000825,-0.0006875,0.0,0.31095,0.12900001,9.873,-10.9875,23.5125,-31.612501
13.229308005427407,0.0001375,0.000275,0.0011,0.31095,0.12900001,9.873,-10.9875,23.5125,-31.612501
13.331071913161464,-0.000825,-0.0006875,0.0001375,0.30795002,0.141,9.868051,-10.9875,23.5125,-31.612501
13.432835820895521,-0.000825,0.000275,-0.0009625,0.31305,0.14295001,9.87495,-10.743751,23.643751,-31.44375
13.534599728629578,0.0001375,-0.0006875,0.0001375,0.31305,0.141,9.870001,-10.743751,23.643751,-31.44375
13.636363636363635,0.0001375,0.000275,0.0001375,0.30600002,0.141,9.868051,-10.6125,23.400002,-31.500002
13.738127544097692,-0.000825,0.000275,0.0001375,0.31095,0.15495001,9.868051,-10.6125,23.400002,-31.500002
13.83989145183175,0.0001375,0.000275,-0.0009625,0.31095,0.14295001,9.873,-10.6125,23.400002,-31.500002
13.941655359565807,0.0001375,-0.0006875,0.0001375,0.30105,0.14805001,9.868051,-10.556251,23.212502,-31.612501
14.043419267299864,0.000275,-0.000825,-0.0009625,0.30795002,0.13305001,9.873,-10.6125,23.5125,-31.556252
14.145183175033921,0.000275,0.000275,0.0001375,0.30795002,0.141,9.868051,-10.6125,23.5125,-31.556252
14.246947082767978,0.001375,0.000275,0.0001375,0.30795002,0.15300001,9.868051,-10.743751,23.643751,-31.556252
14.348710990502035,0.001375,0.000275,0.0001375,0.31305,0.14505,9.87495,-10.743751,23.643751,-31.556252
14.450474898236092,-0.000825,0.000275,0.0001375,0.31305,0.14505,9.87495,-10.743751,23.34375,-31.500002
14.552238805970148,0.000275,-0.000825,0.0001375,0.31305,0.15,9.870001,-10.743751,23.34375,-31.500002
14.654002713704205,0.000275,0.000275,0.0001375,0.30795002,0.141,9.870001,-10.743751,23.34375,-31.500002
14.755766621438262,-0.000825,0.000275,0.0001375,0.30795002,0.15300001,9.861,-10.856251,23.15625,-31.687502
14.857530529172319,-0.000825,0.000275,0.0012375,0.30600002,0.141,9.870001,-10.856251,23.15625,-31.687502
14.959294436906376,0.000275,0.000275,0.0001375,0.30600002,0.13800001,9.873,-10.856251,23.15625,-31.687502
15.061058344640433,-0.000825,0.000275,0.0001375,0.30600002,0.15705001,9.873,-10.8,23.1,-31.500002
15.16282225237449,-0.000825,0.000275,0.0001375,0.30600002,0.14805001,9.865951,-10.8,23.1,-31.500002
15.264586160108548,0.000275,0.000275,0.0001375,0.30600002,0.14805001,9.865951,-10.8,23.1,-31.500002
15.366350067842605,0.000275,0.000275,0.0001375,0.30105,0.16005,9.877951,-10.8,23.15625,-31.612501
15.468113975576662,0.000275,-0.000825,0.0001375,0.30795002,0.14805001,9.868051,-10.8,23.15625,-31.612501
15.569877883310719,0.000275,-0.000825,0.0001375,0.30795002,0.14805001,9.868051,-10.8,23.15625,-31.500002
15.671641791044776,0.000275,-0.000825,0.0001375,0.30600002,0.13800001,9.877951,-10.8,23.15625,-31.500002
15.773405698778832,0.001375,0.000275,0.0001375,0.29895002,0.14805001,9.87495,-10.6125,23.1,-31.612501
15.87516960651289,-0.000825,0.000275,0.0001375,0.31095,0.14505,9.877951,-10.5,22.6875,-31.743752
15.976933514246946,0.000275,0.000275,0.0012375,0.30600002,0.15,9.868051,-10.856251,22.85625,-31.743752
16.078697421981005,0.000275,-0.000825,0.0001375,0.30600002,0.15495001,9.865951,-10.856251,22.85625,-31.743752
16.18046132971506,0.000275,-0.000825,0.0001375,0.30795002,0.14295001,9.870001,-10.856251,22.85625,-31.743752
16.28222523744912,0.000275,0.000275,-0.0009625,0.31500003,0.15,9.870001,-10.856251,22.987501,-31.743752
16.383989145183175,0.000275,0.000275,-0.0009625,0.31095,0.14295001,9.873,-10.856251,22.987501,-31.743752
16.485753052917232,0.000275,0.000275,-0.0009625,0.31095,0.14295001,9.873,-11.1,22.9125,-31.85625
16.58751696065129,0.000275,-0.000825,0.0001375,0.31095,0.15,9.877951,-11.1,22.9125,-31.85625
16.689280868385346,-0.000825,-0.000825,0.0001375,0.30795002,0.14295001,9.870001,-11.1,22.9125,-31.85625
16.791044776119403,-0.000825,-0.000825,0.0001375,0.30795002,0.13800001,9.87495,-11.1,22.9125,-31.85625
16.89280868385346,0.000275,0.000275,0.0001375,0.30600002,0.14805001,9.868051,-11.212501,22.612501,-31.9125
16.994572591587517,0.000275,0.000275,0.0001375,0.30600002,0.14805001,9.870001,-11.212501,22.612501,-31.9125
17.096336499321573,0.000275,0.000275,0.0001375,0.30600002,0.14805001,9.870001,-11.1,22.85625,-31.987501
17.19810040705563,0.000275,0.000275,0.0001375,0.30600002,0.141,9.868051,-11.1,22.85625,-31.987501
17.299864314789687,0.000275,0.001375,-0.0009625,0.30405003,0.15,9.868051,-11.1,23.1,-31.85625
17.401628222523744,0.000275,0.001375,-0.0009625,0.30600002,0.15,9.87495,-11.1,23.1,-31.85625
17.5033921302578,-0.000825,-0.000825,0.0012375,0.30600002,0.15,9.87495,-11.1,23.1,-31.85625
17.605156037991858,0.000275,0.000275,0.0001375,0.30405003,0.15495001,9.870001,-11.1,23.1,-31.85625
17.706919945725915,0.000275,0.000275,0.0001375,0.30600002,0.14505,9.868051,-11.043751,23.34375,-31.9125
17.80868385345997,0.000275,-0.000825,-0.0009625,0.31305,0.15495001,9.87495,-10.9875,23.34375,-31.9125
17.91044776119403,0.000275,-0.000825,0.0001375,0.31095,0.14295001,9.86295,-10.9875,23.34375,-31.9125
18.012211668928085,0.000275,-0.000825,0.0001375,0.31305,0.15300001,9.87495,-10.9875,23.34375,-31.9125
18.113975576662142,0.000275,0.000275,0.0001375,0.31305,0.15300001,9.87495,-10.9875,23.34375,-31.9125
18.2157394843962,0.000275,-0.000825,0.0001375,0.31095,0.15300001,9.882001,-10.8,23.212502,-31.800001
18.317503392130256,0.000275,0.000275,0.0001375,0.30600002,0.14805001,9.873,-10.9875,23.456251,-31.743752
18.419267299864313,-0.000825,-0.000825,0.0012375,0.30600002,0.14505,9.859051,-10.9875,23.456251,-31.743752
18.52103120759837,-0.000825,-0.000825,0.0012375,0.31305,0.14505,9.870001,-10.9875,23.456251,-31.743752
18.622795115332426,-0.000825,-0.000825,0.0001375,0.31305,0.14505,9.870001,-10.9875,23.456251,-31.743752
18.724559023066483,0.000275,0.000275,0.0001375,0.30405003,0.15,9.868051,-11.212501,23.5125,-31.687502
18.826322930800544,0.000275,-0.000825,0.0012375,0.30105,0.13800001,9.873,-11.212501,23.5125,-31.687502
18.9280868385346,-0.000825,0.000275,0.0001375,0.31800002,0.14805001,9.868051,-11.043751,23.456251,-31.687502
19.029850746268657,-0.000825,0.000275,0.0001375,0.31800002,0.14805001,9.868051,-11.043751,23.34375,-31.743752
19.131614654002714,-0.000825,0.000275,0.0012375,0.30795002,0.14505,9.87495,-11.043751,23.34375,-31.743752
19.23337856173677,-0.000825,-0.000825,0.0001375,0.30405003,0.162,9.868051,-11.043751,23.34375,-31.743752
19.335142469470828,-0.000825,0.000275,0.0001375,0.30600002,0.15705001,9.873,-11.34375,23.2875,-31.743752
19.436906377204885,-0.000825,0.000275,0.0001375,0.30795002,0.14505,9.870001,-11.34375,23.2875,-31.743752
19.53867028493894,-0.000825,0.000275,0.0001375,0.30795002,0.14505,9.870001,-11.45625,23.34375,-31.44375
19.640434192673,0.000275,0.000275,0.0001375,0.31305,0.15705001,9.885,-11.45625,23.34375,-31.44375
19.742198100407055,0.000275,0.000275,0.0001375,0.31305,0.15,9.861,-11.45625,23.34375,-31.44375
19.843962008141112,0.000275,0.000275,0.0001375,0.30600002,0.15,9.870001,-11.2875,23.212502,-31.44375
19.94572591587517,0.000275,0.000275,0.0012375,0.30795002,0.14295001,9.873,-11.2875,23.212502,-31.44375
20.047489823609226,0.000275,0.000275,0.0012375,0.30795002,0.14295001,9.873,-10.9875,23.1,-31.3875
20.149253731343283,0.000275,0.000275,0.0001375,0.31305,0.13800001,9.86295,-10.9875,23.1,-31.3875
20.25101763907734,0.000275,0.000275,0.0001375,0.31305,0.14805001,9.865951,-10.9875,23.15625,-31.44375
20.352781546811396,0.000275,0.000275,0.0001375,0.31305,0.14295001,9.870001,-10.9875,23.15625,-31.44375
20.454545454545453,0.000275,0.000275,0.0001375,0.30405003,0.141,9.873,-10.743751,23.212502,-31.3875
20.55630936227951,-0.000825,0.000275,0.0001375,0.30600002,0.15,9.873,-10.743751,23.212502,-31.3875
20.658073270013567,0.000275,0.000275,-0.0,0.30405003,0.15300001,9.86295,-11.2875,23.34375,-31.312502
20.759837177747624,0.000275,-0.000825,-0.0,0.31305,0.15705001,9.870001,-11.2875,23.34375,-31.312502
20.86160108548168,0.000275,0.000275,-0.0,0.31095,0.13800001,9.868051,-11.2875,23.34375,-31.312502
20.963364993215738,-0.000825,0.000275,-0.0,0.30405003,0.16005,9.868051,-11.212501,23.212502,-31.143751
21.065128900949794,-0.000825,0.000275,-0.0,0.30405003,0.13305001,9.865951,-11.15625,23.2875,-31.2
21.16689280868385,0.000275,0.000275,-0.0,0.30795002,0.13605,9.870001,-11.15625,23.2875,-31.2
21.268656716417908,0.000275,0.000275,0.0011,0.31305,0.13305001,9.865951,-11.45625,23.587502,-31.2
21.370420624151965,0.000275,0.000275,0.0011,0.30600002,0.13305001,9.86295,-11.45625,23.587502,-31.2
21.472184531886022,-0.000825,0.000275,-0.0,0.30600002,0.13305001,9.86295,-11.45625,23.587502,-31.2
21.57394843962008,0.000275,0.000275,-0.0,0.31305,0.13095,9.870001,-11.512501,23.5125,-31.2
21.675712347354136,0.000275,0.000275,-0.0,0.30405003,0.141,9.873,-11.512501,23.5125,-31.2
21.777476255088196,0.000275,0.000275,-0.0,0.31095,0.141,9.868051,-11.45625,23.456251,-31.143751
21.879240162822253,0.000275,-0.000825,-0.0,0.30405003,0.141,9.873,-11.45625,23.456251,-31.143751
21.98100407055631,0.000275,-0.000825,-0.0,0.31305,0.126,9.873,-11.45625,23.456251,-31.143751
22.082767978290367,0.000275,0.000275,-0.0011,0.31305,0.126,9.873,-11.45625,23.456251,-31.143751
22.184531886024423,0.000275,-0.000825,-0.0,0.30795002,0.14295001,9.880051,-11.212501,23.5125,-31.2
22.28629579375848,0.000275,0.000275,-0.0,0.30405003,0.13095,9.87495,-11.212501,23.5125,-31.2
22.388059701492537,0.000275,0.000275,-0.0,0.30405003,0.13605,9.87495,-10.9875,23.5125,-31.3875
22.489823609226594,0.000275,0.000275,-0.0,0.30795002,0.15495001,9.870001,-10.9875,23.5125,-31.3875
22.59158751696065,-0.000825,0.000275,-0.0,0.30795002,0.15495001,9.870001,-10.9875,23.5125,-31.3875
22.693351424694708,0.000275,0.000275,-0.0,0.30795002,0.15,9.868051,-10.44375,23.2875,-31.3875
22.795115332428765,0.000275,0.000275,-0.0,0.30105,0.13605,9.861,-10.44375,23.2875,-31.3875
22.89687924016282,-0.000825,0.000275,0.0,0.30795002,0.13800001,9.877951,-10.200001,23.15625,-31.743752
22.99864314789688,0.000275,0.000275,0.0,0.30105,0.15,9.877951,-10.012501,23.04375,-32.04375
23.100407055630935,-0.000825,0.000275,0.0,0.30600002,0.14295001,9.877951,-9.356251,22.743752,-32.2125
23.202170963364992,0.000275,0.000275,0.0,0.31095,0.141,9.877951,-9.356251,22.743752,-32.2125
23.30393487109905,0.000275,0.000275,0.0,0.30795002,0.14805001,9.880051,-9.356251,22.743752,-32.2125
23.405698778833106,-0.000825,0.000275,-0.0011,0.30795002,0.14505,9.885,-9.356251,22.85625,-32.34375
23.507462686567163,0.000275,-0.000825,0.0,0.30600002,0.14805001,9.885,-9.356251,23.04375,-32.643753
23.60922659430122,0.000275,0.000275,-0.0011,0.31500003,0.14295001,9.870001,-9.356251,23.04375,-32.643753
23.710990502035276,0.000275,0.000275,0.0,0.30795002,0.13605,9.885,-9.356251,23.04375,-32.643753
23.812754409769333,0.000275,0.0001375,-0.0011,0.30795002,0.13605,9.885,-9.543751,22.9125,-32.34375
23.91451831750339,-0.000825,0.0012375,-0.0011,0.31095,0.13800001,9.885,-9.543751,22.9125,-32.34375
24.016282225237447,-0.000825,0.0012375,-0.0011,0.31095,0.13800001,9.885,-9.6,22.85625,-32.4
24.118046132971504,0.000275,0.0001375,-0.0011,0.30795002,0.14295001,9.882001,-9.6,22.85625,-32.4
24.21981004070556,0.000275,0.0001375,0.0,0.30795002,0.141,9.87495,-9.6,22.85625,-32.4
24.321573948439617,-0.000825,0.0001375,0.0,0.31500003,0.13095,9.877951,-9.3,22.85625,-32.7
24.423337856173674,0.000275,0.0001375,0.0011,0.30600002,0.14805001,9.880051,-9.3,22.85625,-32.7
24.52510176390773,0.000275,-0.000825,0.0,0.31095,0.13095,9.882001,-9.3,23.15625,-32.34375
24.62686567164179,0.000275,-0.000825,0.0,0.30795002,0.13305001,9.880051,-9.3,23.15625,-32.34375
24.72862957937585,0.000275,0.0001375,0.0,0.30405003,0.12405001,9.87495,-9.3,23.15625,-32.34375
24.830393487109905,0.000275,0.0001375,0.0,0.30405003,0.12405001,9.87495,-9.543751,23.2875,-32.287502
24.932157394843962,0.000275,0.0001375,0.0,0.30105,0.13800001,9.885,-9.543751,23.2875,-32.287502
25.03392130257802,-0.0006875,-0.000825,-0.0011,0.30405003,0.13305001,9.87495,-10.14375,23.456251,-32.04375
25.135685210312076,0.000275,-0.000825,-0.0011,0.31095,0.13305001,9.87495,-10.14375,23.456251,-32.04375
25.237449118046133,0.000275,0.0001375,0.0,0.31305,0.13800001,9.880051,-10.3125,23.400002,-31.800001
25.33921302578019,0.000275,0.0001375,0.0,0.30105,0.13800001,9.877951,-10.3125,23.400002,-31.800001
25.440976933514246,0.000275,0.0001375,0.0,0.30105,0.13800001,9.877951,-10.5,23.1,-31.556252
25.542740841248303,0.000275,0.0001375,0.0,0.30405003,0.13800001,9.882001,-10.5,23.1,-31.556252
25.64450474898236,0.000275,0.0001375,0.0011,0.31500003,0.13305001,9.882001,-10.5,23.1,-31.556252
25.746268656716417,0.000275,0.0001375,0.0011,0.31800002,0.13095,9.880051,-10.556251,23.212502,-31.612501
25.848032564450474,0.000275,0.0001375,0.0,0.30405003,0.13605,9.877951,-10.556251,23.212502,-31.612501
25.94979647218453,0.000275,0.0001375,0.0,0.30405003,0.13605,9.877951,-10.743751,23.212502,-31.44375
26.051560379918588,0.000275,0.0012375,0.0011,0.30600002,0.13800001,9.877951,-10.743751,23.212502,-31.44375
26.153324287652644,-0.0006875,0.0001375,0.0011,0.30405003,0.14295001,9.885,-11.15625,23.34375,-31.143751
26.2550881953867,-0.0006875,0.0001375,0.0011,0.30405003,0.14505,9.870001,-11.34375,23.212502,-31.312502
26.356852103120758,-0.0006875,-0.0009625,0.0011,0.31095,0.13800001,9.877951,-11.34375,23.212502,-31.312502
26.458616010854815,0.000275,0.0001375,0.0,0.30795002,0.13605,9.880051,-11.34375,23.212502,-31.312502
26.560379918588872,0.000275,0.0001375,0.0011,0.31095,0.13095,9.880051,-11.45625,23.1,-31.312502
26.66214382632293,0.000275,0.0001375,0.0011,0.30795002,0.13305001,9.873,-11.45625,23.1,-31.312502
26.763907734056986,-0.0006875,0.0001375,0.0011,0.29895002,0.13605,9.868051,-11.212501,23.1,-31.556252
26.865671641791042,0.000275,0.0001375,0.0011,0.31095,0.13800001,9.882001,-11.043751,22.987501,-31.612501
26.9674355495251,-0.0006875,0.0001375,0.0011,0.29895002,0.13095,9.873,-11.043751,22.987501,-31.612501
27.069199457259156,0.000275,0.0001375,0.0011,0.31305,0.13605,9.87495,-11.043751,22.987501,-31.612501
27.170963364993213,0.000275,0.0001375,0.0011,0.31095,0.12900001,9.880051,-11.043751,22.987501,-31.612501
27.27272727272727,0.000275,0.0001375,0.0,0.31095,0.12900001,9.880051,-10.9875,23.04375,-31.9125
27.374491180461327,-0.0006875,-0.0009625,0.0011,0.31095,0.13305001,9.877951,-10.8,22.9125,-32.100002
27.476255088195384,0.0004125,0.0001375,0.0011,0.30795002,0.13800001,9.870001,-10.8,22.9125,-32.100002
27.578018995929444,0.0004125,-0.0009625,0.0011,0.30405003,0.13095,9.87495,-10.6125,23.1,-32.2125
27.6797829036635,0.0004125,0.0001375,0.0011,0.30795002,0.12900001,9.877951,-10.743751,23.04375,-32.15625
27.781546811397558,0.0004125,0.0001375,0.0011,0.30795002,0.126,9.873,-10.743751,23.04375,-32.15625
27.883310719131615,-0.0006875,0.0001375,0.0011,0.30405003,0.14295001,9.868051,-10.3125,22.987501,-32.15625
27.98507462686567,-0.0006875,0.0001375,0.0011,0.31095,0.13800001,9.877951,-10.3125,22.987501,-32.15625
28.08683853459973,0.0004125,0.0001375,0.0011,0.31095,0.13800001,9.877951,-10.3125,22.987501,-32.15625
28.188602442333785,0.0004125,0.0001375,0.0011,0.30795002,0.13605,9.87495,-10.25625,23.15625,-32.04375
28.290366350067842,0.0004125,0.0001375,0.0011,0.30795002,0.13095,9.87495,-10.25625,23.15625,-32.04375
28.3921302578019,0.0004125,0.0001375,0.0,0.30795002,0.13095,9.87495,-10.25625,23.15625,-32.04375
28.493894165535956,0.0004125,0.0001375,0.0011,0.30795002,0.13800001,9.87495,-10.25625,23.2875,-32.04375
28.595658073270013,0.0004125,0.0001375,0.0011,0.31095,0.13605,9.865951,-10.25625,23.2875,-32.04375
28.69742198100407,0.0004125,0.0001375,0.0011,0.31095,0.13605,9.865951,-10.25625,23.34375,-32.287502
28.799185888738126,0.0004125,0.0001375,0.0011,0.30795002,0.13605,9.865951,-10.25625,23.34375,-32.287502
28.900949796472183,0.0004125,0.0001375,0.0011,0.30795002,0.13305001,9.877951,-10.25625,23.34375,-32.287502
29.00271370420624,-0.0006875,-0.0009625,0.0022,0.31095,0.14295001,9.873,-10.387501,23.34375,-31.987501
29.104477611940297,-0.0006875,0.0001375,0.0011,0.31305,0.141,9.865951,-10.387501,23.1,-31.800001
29.206241519674354,-0.0017875,-0.0009625,0.0011,0.30600002,0.15495001,9.87495,-10.387501,23.1,-32.04375
29.30800542740841,0.0004125,0.0001375,0.0011,0.30795002,0.13800001,9.877951,-10.856251,23.1,-31.9125
29.409769335142467,0.0004125,0.0001375,0.0022,0.30600002,0.14295001,9.87495,-10.8,23.1,-31.987501
29.511533242876524,0.0004125,0.0001375,0.0022,0.31095,0.13305001,9.86295,-10.8,23.1,-31.987501
29.61329715061058,0.000275,0.0001375,0.0011,0.30600002,0.14805001,9.877951,-10.8,23.04375,-31.987501
29.715061058344638,-0.0006875,0.0001375,0.0,0.31305,0.13800001,9.877951,-10.8,23.04375,-31.987501
29.816824966078695,0.000275,0.0001375,0.0011,0.30795002,0.14505,9.87495,-10.8,23.04375,-31.987501
29.91858887381275,0.000275,-0.0009625,0.0011,0.31095,0.14505,9.877951,-10.8,22.987501,-31.9125
30.02035278154681,-0.0006875,0.0001375,0.0011,0.31305,0.16005,9.873,-10.8,22.987501,-31.9125
30.122116689280865,0.000275,0.0012375,0.0,0.30795002,0.14295001,9.877951,-10.9875,22.987501,-31.85625
30.223880597014922,0.000275,0.0001375,0.0,0.31095,0.15,9.861,-11.212501,23.1,-31.85625
30.32564450474898,0.000275,0.0001375,0.0,0.30795002,0.15705001,9.877951,-11.212501,23.1,-31.85625
30.42740841248304,-0.0006875,0.0001375,0.0011,0.30600002,0.14805001,9.87495,-11.34375,23.2875,-31.9125
30.529172320217096,0.000275,-0.0009625,0.0011,0.30600002,0.15,9.87495,-11.34375,23.2875,-31.9125
30.630936227951153,0.000275,-0.0009625,0.0011,0.30405003,0.14505,9.873,-11.34375,23.2875,-31.9125
30.73270013568521,0.000275,0.0001375,0.0011,0.30105,0.14505,9.877951,-11.45625,23.400002,-31.85625
30.834464043419267,0.000275,0.0001375,0.0011,0.30105,0.14505,9.877951,-11.212501,23.5125,-31.9125
30.936227951153324,0.000275,0.0001375,0.0011,0.31305,0.15495001,9.870001,-11.212501,23.5125,-31.9125
31.03799185888738,-0.0006875,0.0001375,0.0,0.30600002,0.14505,9.882001,-11.212501,23.5125,-31.9125
31.139755766621438,0.000275,0.0001375,0.0011,0.30600002,0.14505,9.86295,-10.9875,23.34375,-31.987501
31.241519674355494,0.000275,0.0001375,0.0011,0.31500003,0.15495001,9.877951,-10.9875,23.34375,-31.987501
31.34328358208955,0.000275,0.0001375,0.0011,0.30795002,0.14505,9.873,-11.212501,23.2875,-31.85625
31.445047489823608,-0.0006875,0.0001375,0.0,0.30795002,0.13800001,9.87495,-11.212501,23.2875,-31.85625
31.546811397557665,0.000275,0.0001375,0.0011,0.30600002,0.14505,9.870001,-11.212501,23.2875,-31.85625
31.648575305291722,-0.0006875,-0.0009625,0.0011,0.30405003,0.12900001,9.87495,-11.212501,23.2875,-31.85625
31.75033921302578,-0.0006875,-0.0009625,0.0011,0.30405003,0.12900001,9.87495,-11.2875,23.34375,-31.687502
31.852103120759836,0.000275,0.0001375,0.0011,0.30600002,0.13305001,9.87495,-11.2875,23.34375,-31.687502
31.953867028493892,-0.0006875,0.0012375,0.0,0.30600002,0.13605,9.865951,-11.2875,23.34375,-31.687502
32.05563093622795,0.000275,0.0001375,0.0011,0.30795002,0.13095,9.868051,-11.1,23.34375,-31.687502
32.15739484396201,0.000275,0.0001375,0.0011,0.30600002,0.13095,9.880051,-11.1,23.34375,-31.687502
32.25915875169606,0.000275,0.0001375,0.0011,0.31305,0.12900001,9.870001,-10.743751,22.987501,-31.743752
32.36092265943012,-0.0006875,0.0001375,0.0011,0.30795002,0.12900001,9.880051,-10.6875,23.1,-31.743752
32.46268656716418,-0.0006875,0.0001375,0.0011,0.30405003,0.13305001,9.868051,-10.6875,23.1,-31.743752
32.56445047489824,0.000275,0.0001375,0.0,0.30795002,0.13305001,9.865951,-10.856251,22.987501,-31.556252
32.66621438263229,0.000275,0.0001375,0.0,0.30405003,0.12900001,9.865951,-11.212501,23.15625,-31.312502
32.76797829036635,0.0004125,0.0001375,-0.000825,0.31305,0.13305001,9.87495,-11.15625,23.15625,-31.312502
32.869742198100404,0.0004125,0.0001375,0.0001375,0.30405003,0.12900001,9.873,-11.212501,23.34375,-31.44375
32.971506105834465,-0.0006875,0.0001375,0.0001375,0.30795002,0.13800001,9.870001,-11.34375,23.8125,-31.687502
33.07327001356852,-0.0006875,0.0001375,-0.0009625,0.30795002,0.13605,9.865951,-11.512501,24.0,-31.800001
33.17503392130258,0.0004125,0.0001375,-0.0009625,0.31305,0.13305001,9.868051,-11.45625,23.94375,-31.800001
33.27679782903663,0.0004125,0.0001375,-0.0009625,0.31095,0.13605,9.865951,-11.45625,23.94375,-31.800001
33.37856173677069,0.0004125,-0.0009625,-0.0009625,0.30795002,0.13095,9.870001,-11.45625,23.8875,-31.743752
33.480325644504745,0.0004125,-0.0009625,-0.0009625,0.31095,0.13095,9.873,-11.45625,23.8875,-31.743752
33.582089552238806,-0.0006875,0.0001375,-0.001925,0.31095,0.13095,9.873,-11.45625,23.8875,-31.743752
33.68385345997286,-0.0006875,0.0001375,-0.0009625,0.30600002,0.13605,9.870001,-11.400001,23.8125,-31.800001
33.78561736770692,-0.0006875,0.0001375,-0.0009625,0.31305,0.13800001,9.870001,-11.400001,23.8125,-31.800001
33.88738127544097,0.000275,0.0012375,-0.0009625,0.31095,0.13095,9.870001,-11.512501,23.75625,-31.500002
33.98914518317503,-0.0006875,0.0001375,-0.0009625,0.30795002,0.13305001,9.873,-11.512501,23.75625,-31.500002
34.090909090909086,0.000275,0.0001375,-0.0009625,0.30600002,0.12900001,9.870001,-11.512501,23.643751,-31.3875
34.19267299864315,-0.0006875,0.0001375,-0.0009625,0.30795002,0.13800001,9.868051,-11.512501,23.643751,-31.3875
34.2944369063772,-0.0006875,0.0001375,-0.0009625,0.30600002,0.14295001,9.870001,-11.512501,23.643751,-31.3875
34.39620081411126,-0.0006875,0.0001375,-0.0009625,0.31095,0.13605,9.877951,-11.512501,23.8125,-31.3875
34.497964721845314,0.000275,-0.000825,-0.0009625,0.30600002,0.141,9.870001,-11.2875,23.5125,-31.3875
34.599728629579374,0.000275,0.0012375,-0.001925,0.30600002,0.14295001,9.873,-11.043751,23.2875,-31.3875
34.70149253731343,-0.0006875,0.0001375,-0.0009625,0.30795002,0.126,9.880051,-11.1,23.75625,-31.687502
34.80325644504749,-0.0006875,0.0001375,-0.0009625,0.30600002,0.13800001,9.865951,-11.2875,23.587502,-31.9125
34.90502035278155,0.000275,0.0001375,0.0001375,0.29895002,0.13305001,9.861,-11.2875,23.587502,-31.9125
35.0067842605156,0.000275,-0.000825,-0.0009625,0.30795002,0.141,9.870001,-11.212501,23.5125,-31.9125
35.10854816824966,0.000275,0.0001375,-0.0009625,0.30795002,0.13095,9.87495,-11.212501,23.5125,-31.9125
35.210312075983715,0.000275,0.0001375,-0.0009625,0.30795002,0.13095,9.87495,-11.212501,23.587502,-31.9125
35.312075983717776,-0.0006875,0.0001375,-0.0009625,0.30600002,0.13305001,9.865951,-11.212501,23.587502,-31.9125
35.41383989145183,0.000275,0.0001375,-0.001925,0.31095,0.13305001,9.877951,-11.212501,23.587502,-31.9125
35.51560379918589,0.000275,0.0001375,-0.001925,0.31095,0.13305001,9.877951,-11.212501,23.400002,-31.987501
35.61736770691994,-0.0006875,0.0001375,-0.0009625,0.30795002,0.13800001,9.865951,-11.212501,23.212502,-31.9125
35.719131614654,-0.0006875,0.0001375,-0.0009625,0.30600002,0.14805001,9.873,-11.2875,23.15625,-31.9125
35.82089552238806,0.000275,0.0001375,-0.0009625,0.29595003,0.13605,9.87495,-11.2875,23.15625,-31.9125
35.92265943012212,-0.0006875,0.000275,0.0,0.31095,0.14805001,9.877951,-10.9875,23.1,-31.9125
36.02442333785617,0.0004125,0.000275,-0.0011,0.30600002,0.14805001,9.868051,-10.9875,23.1,-31.9125
36.12618724559023,0.0004125,0.000275,-0.0011,0.31305,0.14805001,9.87495,-10.9875,23.1,-31.743752
36.227951153324284,0.0004125,0.000275,0.0,0.31095,0.12900001,9.868051,-10.9875,23.1,-31.743752
36.329715061058344,0.0004125,0.000275,0.0,0.31305,0.13800001,9.868051,-10.9875,23.1,-31.743752
36.4314789687924,0.0004125,0.000275,0.0,0.30105,0.13800001,9.868051,-10.9875,23.15625,-31.687502
36.53324287652646,-0.0006875,0.000275,-0.0,0.30105,0.13800001,9.868051,-10.9875,23.15625,-31.687502
36.63500678426051,0.0004125,-0.000825,-0.0,0.30600002,0.13800001,9.87495,-11.1,23.34375,-31.743752
36.73677069199457,0.0004125,0.000275,-0.0,0.31095,0.13605,9.870001,-11.1,23.34375,-31.743752
36.838534599728625,0.0004125,0.000275,-0.0,0.30795002,0.14295001,9.865951,-11.1,23.34375,-31.743752
36.940298507462686,-0.0006875,0.000275,-0.0,0.30795002,0.14295001,9.865951,-11.2875,23.456251,-31.743752
37.04206241519674,0.0004125,-0.000825,-0.0,0.30795002,0.14295001,9.87495,-11.45625,23.456251,-31.743752
37.1438263229308,0.0004125,0.000275,-0.0,0.30600002,0.14505,9.865951,-11.1,23.400002,-31.687502
37.24559023066485,0.0004125,0.000275,-0.0,0.30105,0.13605,9.877951,-11.1,23.400002,-31.687502
37.34735413839891,-0.0006875,0.000275,-0.0,0.30600002,0.141,9.870001,-11.2875,23.400002,-31.687502
37.449118046132966,0.0004125,0.000275,-0.0,0.31095,0.14295001,9.865951,-11.2875,23.400002,-31.687502
37.55088195386703,0.0004125,0.000275,-0.0,0.30600002,0.12900001,9.865951,-11.2875,23.400002,-31.687502
37.65264586160109,0.0004125,0.000275,-0.0,0.31305,0.13095,9.870001,-11.2875,23.400002,-31.687502
37.75440976933514,0.0004125,-0.000825,-0.0,0.31305,0.13095,9.870001,-11.45625,23.5125,-31.500002
37.8561736770692,-0.0006875,0.000275,-0.0,0.29895002,0.141,9.865951,-11.45625,23.5125,-31.500002
37.957937584803254,0.0004125,0.000275,-0.0,0.30795002,0.141,9.870001,-11.45625,23.456251,-31.687502
38.059701492537314,0.0004125,0.000275,-0.0011,0.31500003,0.13800001,9.868051,-11.45625,23.456251,-31.687502
38.16146540027137,0.0004125,0.000275,-0.0011,0.31500003,0.14295001,9.87495,-11.45625,23.456251,-31.687502
38.26322930800543,0.0004125,0.000275,-0.0,0.30405003,0.14295001,9.870001,-11.34375,23.400002,-31.44375
38.36499321573948,0.0004125,0.000275,-0.0,0.30795002,0.141,9.873,-11.34375,23.400002,-31.44375
38.46675712347354,0.0004125,0.000275,-0.0,0.31095,0.141,9.870001,-11.34375,23.400002,-31.44375
38.568521031207595,0.0004125,0.000275,-0.0,0.30600002,0.13305001,9.868051,-11.1,23.400002,-31.500002
38.670284938941656,-0.0006875,0.000275,-0.0,0.30795002,0.12900001,9.861,-10.9875,23.212502,-31.3875
38.77204884667571,0.0004125,0.000275,-0.0,0.31095,0.13800001,9.865951,-10.9875,23.04375,-31.3875
38.87381275440977,0.0004125,0.000275,-0.0,0.30795002,0.13800001,9.870001,-10.9875,23.04375,-31.3875
38.97557666214382,-0.0006875,-0.000825,-0.0,0.30795002,0.13800001,9.870001,-10.9875,23.04375,-31.3875
39.07734056987788,-0.0006875,0.000275,-0.0,0.31095,0.141,9.870001,-10.856251,23.1,-31.3875
39.179104477611936,0.0004125,-0.000825,0.0011,0.30795002,0.14295001,9.873,-10.856251,23.1,-31.3875
39.280868385346,0.0004125,0.000275,-0.0,0.30600002,0.13800001,9.868051,-10.743751,22.9125,-31.312502
39.38263229308005,0.0004125,-0.000825,-0.0,0.30105,0.12405001,9.868051,-10.743751,22.9125,-31.312502
39.48439620081411,0.0004125,-0.000825,-0.0,0.30795002,0.13605,9.870001,-10.743751,22.9125,-31.312502
39.586160108548164,0.0004125,0.000275,-0.0011,0.30795002,0.141,9.873,-10.556251,22.987501,-31.44375
39.687924016282224,0.0004125,0.000275,-0.0,0.31500003,0.13605,9.868051,-10.556251,22.987501,-31.44375
39.78968792401628,0.0004125,-0.000825,-0.0,0.30600002,0.13095,9.868051,-10.5,23.1,-31.687502
39.89145183175034,0.0004125,0.000275,-0.0011,0.31095,0.13605,9.86295,-10.5,23.1,-31.687502
39.99321573948439,0.0004125,0.000275,-0.0011,0.30600002,0.13305001,9.868051,-10.6875,22.987501,-31.44375
40.09497964721845,-0.0006875,0.0012375,-0.0,0.30795002,0.13095,9.868051,-10.743751,23.15625,-31.44375
40.196743554952505,-0.0006875,0.0012375,-0.0,0.30405003,0.14295001,9.877951,-10.743751,23.15625,-31.44375
40.298507462686565,0.0004125,0.000275,-0.0011,0.30405003,0.14295001,9.877951,-10.743751,23.15625,-31.44375
40.40027137042062,0.0004125,0.000275,-0.0,0.30405003,0.14805001,9.873,-10.743751,23.15625,-31.44375
40.50203527815468,-0.0006875,0.000275,-0.0,0.30105,0.13800001,9.868051,-11.043751,23.1,-31.612501
40.60379918588874,-0.0006875,0.000275,-0.0,0.31095,0.13605,9.868051,-11.043751,23.1,-31.612501
40.70556309362279,-0.0006875,-0.000825,-0.0,0.31095,0.13605,9.868051,-11.212501,23.15625,-31.687502
40.80732700135685,0.0004125,0.000275,-0.0011,0.29895002,0.14295001,9.865951,-11.2875,23.1,-31.612501
40.90909090909091,-0.0006875,0.000275,-0.0,0.30795002,0.14295001,9.868051,-11.2875,23.1,-31.612501
41.01085481682497,-0.0006875,0.000275,-0.0,0.30600002,0.13605,9.870001,-11.2875,23.1,-31.612501
41.11261872455902,0.0004125,-0.000825,-0.0,0.30600002,0.13605,9.870001,-11.2875,22.987501,-31.500002
41.21438263229308,-0.0006875,-0.000825,-0.0011,0.30795002,0.13800001,9.873,-11.2875,22.987501,-31.500002
41.316146540027134,0.0004125,0.000275,-0.0,0.30600002,0.13095,9.873,-11.212501,23.04375,-31.44375
41.417910447761194,0.0004125,0.000275,-0.0,0.30795002,0.14805001,9.873,-11.212501,23.04375,-31.44375
41.51967435549525,-0.0006875,0.000275,0.0011,0.30795002,0.14805001,9.873,-11.212501,23.04375,-31.44375
41.62143826322931,0.0004125,0.000275,-0.0,0.30600002,0.141,9.870001,-11.212501,23.1,-31.556252
41.72320217096336,0.0015125,0.000275,-0.0,0.30405003,0.13305001,9.870001,-11.212501,23.1,-31.556252
41.82496607869742,-0.0006875,0.000275,-0.0,0.30795002,0.13605,9.870001,-11.212501,23.1,-31.556252
41.926729986431475,-0.00055,0.0001375,0.0001375,0.30600002,0.141,9.868051,-11.2875,23.34375,-31.612501
42.028493894165535,-0.00055,0.0001375,0.0001375,0.31095,0.13305001,9.87495,-11.2875,23.34375,-31.612501
42.13025780189959,-0.00055,0.0001375,0.0001375,0.31500003,0.14505,9.873,-11.2875,23.34375,-31.612501
42.23202170963365,-0.00055,-0.0009625,0.0001375,0.31500003,0.14505,9.873,-11.700001,23.400002,-31.556252
42.3337856173677,-0.00055,0.0001375,0.0001375,0.30405003,0.14505,9.865951,-11.700001,23.400002,-31.556252
42.43554952510176,0.0004125,0.0001375,0.0001375,0.30795002,0.15,9.87495,-11.512501,23.456251,-31.312502
42.537313432835816,-0.00055,0.0001375,0.0001375,0.31305,0.15495001,9.868051,-11.512501,23.456251,-31.312502
42.63907734056988,-0.00055,0.0001375,0.0001375,0.30600002,0.14295001,9.868051,-11.512501,23.456251,-31.312502
42.74084124830393,0.0004125,-0.0009625,0.0001375,0.30600002,0.15,9.870001,-11.512501,23.587502,-31.312502
42.84260515603799,-0.00055,0.0001375,-0.0009625,0.30600002,0.15705001,9.87495,-11.512501,23.587502,-31.312502
42.944369063772044,0.0004125,0.0001375,0.0012375,0.30405003,0.14505,9.868051,-11.587501,23.8875,-31.44375
43.046132971506104,0.0004125,0.0001375,0.0001375,0.31305,0.14295001,9.870001,-11.587501,23.8875,-31.44375
43.14789687924016,-0.00165,0.0001375,0.0001375,0.31305,0.15495001,9.865951,-11.8125,23.94375,-31.44375
43.24966078697422,-0.00055,0.0001375,0.0001375,0.30795002,0.14805001,9.873,-12.0,23.94375,-31.143751
43.35142469470827,0.0004125,0.0001375,0.0001375,0.30405003,0.14805001,9.868051,-12.0,23.94375,-31.143751
43.45318860244233,0.0004125,0.0001375,0.0001375,0.30405003,0.14505,9.87495,-12.0,23.94375,-31.143751
43.55495251017639,0.0004125,-0.0009625,0.0001375,0.30405003,0.14505,9.87495,-11.75625,23.75625,-31.087502
43.656716417910445,0.0004125,0.0001375,0.0001375,0.30405003,0.13800001,9.86295,-11.75625,23.75625,-31.087502
43.758480325644506,-0.00055,0.0001375,0.0001375,0.30405003,0.14505,9.865951,-11.8125,23.643751,-31.143751
43.86024423337856,-0.00055,0.0001375,0.0001375,0.31095,0.14805001,9.870001,-11.8125,23.643751,-31.143751
43.96200814111262,0.0004125,0.0001375,0.0001375,0.31095,0.14805001,9.870001,-11.8125,23.643751,-31.143751
44.06377204884667,-0.00055,0.0001375,0.0001375,0.30405003,0.126,9.870001,-11.8125,23.643751,-31.143751
44.16553595658073,-0.00055,0.0001375,0.0001375,0.30795002,0.14505,9.873,-11.587501,23.456251,-31.0125
44.267299864314786,0.0004125,0.0001375,0.0001375,0.30600002,0.13305001,9.868051,-11.45625,23.400002,-31.143751
44.36906377204885,0.0004125,0.0001375,0.0001375,0.31305,0.13800001,9.868051,-11.45625,23.400002,-31.143751
44.4708276797829,-0.00055,0.0012375,-0.0009625,0.31305,0.13800001,9.868051,-11.45625,23.400002,-31.143751
44.57259158751696,-0.00055,0.0001375,0.0001375,0.30105,0.13800001,9.865951,-11.34375,23.400002,-31.087502
44.674355495251014,0.0004125,0.0001375,0.0001375,0.29895002,0.13095,9.868051,-11.34375,23.400002,-31.087502
44.776119402985074,-0.00055,0.0001375,0.0001375,0.30795002,0.12900001,9.870001,-11.212501,23.04375,-30.900002
44.87788331071913,0.0004125,-0.0009625,0.0001375,0.31500003,0.13095,9.873,-11.212501,23.1,-30.7875
44.97964721845319,0.0004125,0.0001375,0.0001375,0.30600002,0.12405001,9.868051,-11.212501,23.1,-30.7875
45.08141112618724,0.0004125,0.0001375,0.0001375,0.31095,0.13305001,9.87495,-11.212501,23.1,-30.7875
45.1831750339213,0.0004125,0.0001375,0.0001375,0.31095,0.13305001,9.87495,-11.212501,23.1,-31.143751
45.284938941655355,-0.00055,0.0001375,0.0001375,0.31095,0.14505,9.873,-11.212501,23.1,-31.143751
45.386702849389415,0.0004125,0.0001375,0.0001375,0.31305,0.13800001,9.868051,-11.212501,23.1,-31.143751
45.48846675712347,-0.00055,0.0001375,0.0001375,0.30600002,0.13605,9.87495,-11.34375,23.04375,-31.143751
45.59023066485753,0.0004125,0.0001375,-0.000825,0.31095,0.13305001,9.873,-11.2875,23.1,-31.087502
45.69199457259158,-0.00055,-0.0009625,-0.0009625,0.30795002,0.126,9.87495,-11.45625,23.212502,-31.087502
45.79375848032564,-0.00055,0.0001375,0.0012375,0.31095,0.13305001,9.873,-11.45625,23.212502,-31.087502
45.895522388059696,0.0004125,0.0001375,0.0001375,0.30795002,0.13305001,9.859051,-11.212501,23.2875,-31.44375
45.99728629579376,0.0004125,-0.0009625,0.0001375,0.31095,0.13305001,9.865951,-11.212501,23.2875,-31.44375
46.09905020352781,0.0004125,0.0001375,-0.0009625,0.31095,0.13605,9.868051,-10.9875,23.1,-31.312502
46.20081411126187,0.0004125,0.0001375,0.0001375,0.31305,0.141,9.873,-10.9875,23.1,-31.312502
46.30257801899592,-0.00055,0.0001375,0.0001375,0.31095,0.13095,9.865951,-10.9875,23.1,-31.312502
46.404341926729984,0.0004125,-0.0009625,0.0001375,0.31305,0.13095,9.865951,-10.9125,23.2875,-31.44375
46.506105834464044,0.0004125,-0.0009625,0.0001375,0.30105,0.14505,9.865951,-10.9125,23.2875,-31.44375
46.6078697421981,-0.00055,-0.0009625,0.0001375,0.30795002,0.13305001,9.873,-10.9125,23.2875,-31.44375
46.70963364993216,0.0004125,0.0001375,0.0001375,0.31095,0.14505,9.877951,-10.9125,23.2875,-31.44375
46.81139755766621,-0.00055,0.0001375,-0.0009625,0.30795002,0.13800001,9.865951,-10.743751,23.15625,-31.3875
46.91316146540027,0.0004125,-0.0009625,0.0012375,0.31095,0.141,9.87495,-10.743751,23.15625,-31.3875
47.014925373134325,-0.00055,0.0001375,0.0012375,0.30795002,0.13605,9.865951,-10.743751,23.15625,-31.3875
47.116689280868385,-0.00055,0.0001375,0.0012375,0.30795002,0.13605,9.865951,-10.743751,22.85625,-31.44375
47.21845318860244,-0.00055,-0.0009625,0.0001375,0.31095,0.13800001,9.861,-10.743751,22.85625,-31.44375
47.3202170963365,0.0004125,-0.0009625,0.0001375,0.30405003,0.13605,9.868051,-10.743751,22.85625,-31.44375
47.42198100407055,0.0004125,0.0001375,0.0012375,0.31305,0.141,9.868051,-10.9875,22.612501,-31.2
47.52374491180461,0.0004125,-0.0009625,0.0001375,0.30405003,0.13305001,9.868051,-11.043751,22.800001,-31.312502
47.625508819538666,0.0004125,0.0001375,0.0001375,0.29895002,0.14805001,9.868051,-11.043751,22.800001,-31.312502
47.72727272727273,-0.00055,0.0001375,0.0001375,0.30405003,0.13800001,9.873,-11.043751,22.800001,-31.312502
47.82903663500678,0.0004125,0.0001375,0.0011,0.31305,0.13605,9.877951,-11.400001,23.1,-31.687502
47.93080054274084,0.0004125,0.0001375,0.0011,0.30405003,0.13800001,9.87495,-11.400001,23.1,-31.687502
48.032564450474894,0.0004125,-0.000825,-0.0,0.31500003,0.14505,9.865951,-11.64375,23.15625,-31.44375
48.134328358208954,0.0004125,-0.000825,-0.0,0.30405003,0.141,9.873,-11.64375,23.15625,-31.44375
48.23609226594301,0.0004125,0.0001375,-0.0,0.30600002,0.13305001,9.870001,-11.75625,23.15625,-31.556252
48.33785617367707,0.0004125,0.0001375,-0.0,0.31095,0.13605,9.870001,-11.75625,23.1,-31.612501
48.43962008141112,-0.0006875,0.0001375,-0.0011,0.30795002,0.12900001,9.87495,-11.94375,23.34375,-31.612501
48.54138398914518,0.0004125,-0.000825,-0.0,0.31095,0.13305001,9.873,-11.94375,23.34375,-31.612501
48.643147896879235,0.0004125,-0.000825,-0.0,0.30405003,0.13095,9.868051,-11.94375,23.34375,-31.612501
48.744911804613295,0.0004125,0.0001375,-0.0,0.30405003,0.13095,9.868051,-11.75625,23.5125,-31.556252
48.84667571234735,0.0004125,0.0001375,-0.0,0.31305,0.13095,9.865951,-11.75625,23.5125,-31.556252
48.94843962008141,-0.0006875,-0.000825,-0.0,0.30105,0.141,9.870001,-11.75625,23.5125,-31.556252
49.05020352781546,0.0015125,0.0001375,0.0011,0.31305,0.13605,9.870001,-11.700001,23.643751,-31.612501
49.15196743554952,-0.0006875,-0.000825,-0.0,0.30795002,0.13605,9.877951,-11.700001,23.643751,-31.612501
49.25373134328358,0.0004125,0.0001375,-0.0,0.30405003,0.13605,9.880051,-11.700001,23.643751,-31.612501
49.355495251017636,0.0004125,0.0001375,-0.0,0.30405003,0.13605,9.880051,-11.700001,23.587502,-31.44375
49.4572591587517,0.0004125,0.0001375,-0.0,0.30600002,0.13095,9.873,-11.700001,23.587502,-31.44375
49.55902306648575,0.0004125,0.0001375,-0.0,0.30795002,0.141,9.865951,-11.700001,23.587502,-31.44375
49.66078697421981,-0.0006875,0.0001375,-0.0,0.30795002,0.14295001,9.873,-11.45625,23.5125,-31.3875
49.762550881953864,0.0004125,-0.000825,-0.0,0.30795002,0.14505,9.873,-11.45625,23.5125,-31.3875
49.864314789687924,0.0004125,-0.000825,-0.0,0.30795002,0.14505,9.873,-11.043751,23.5125,-31.500002
49.96607869742198,0.0004125,-0.000825,-0.0,0.30600002,0.13305001,9.873,-11.043751,23.5125,-31.500002
50.06784260515604,0.0004125,-0.000825,-0.0,0.30795002,0.141,9.882001,-11.043751,23.5125,-31.500002
50.16960651289009,0.0004125,-0.000825,-0.0,0.30795002,0.141,9.882001,-10.9875,23.34375,-31.500002
50.27137042062415,-0.0006875,0.000275,-0.0,0.30795002,0.13800001,9.868051,-10.9875,23.34375,-31.500002
50.373134328358205,-0.0006875,0.000275,-0.0011,0.30795002,0.141,9.868051,-10.9875,23.34375,-31.500002
50.474898236092265,0.0004125,-0.000825,-0.0,0.294,0.126,9.873,-11.15625,23.400002,-31.44375
50.57666214382632,0.0004125,-0.000825,0.0011,0.30405003,0.13800001,9.86295,-11.043751,23.1,-31.500002
50.67842605156038,0.0004125,0.000275,-0.0,0.30105,0.141,9.877951,-11.043751,23.1,-31.500002
50.78018995929443,0.0004125,0.000275,-0.0,0.30405003,0.13095,9.877951,-11.043751,23.1,-31.500002
50.88195386702849,-0.0006875,0.000275,0.0011,0.31305,0.13305001,9.868051,-11.212501,22.987501,-31.687502
50.983717774762546,-0.0006875,0.000275,0.0011,0.31800002,0.13095,9.873,-11.212501,22.987501,-31.687502
51.08548168249661,0.0004125,0.0001375,-0.0,0.30405003,0.13800001,9.870001,-11.34375,22.9125,-31.85625
51.18724559023066,0.0004125,0.0001375,-0.0,0.31095,0.141,9.870001,-11.34375,22.9125,-31.85625
51.28900949796472,-0.00165,0.0001375,-0.0011,0.30600002,0.14505,9.87495,-11.34375,22.987501,-31.85625
51.39077340569877,-0.00165,0.0001375,-0.0011,0.31095,0.13800001,9.86295,-11.34375,22.987501,-31.85625
51.492537313432834,0.0004125,0.0001375,-0.0,0.30795002,0.14295001,9.865951,-11.45625,22.9125,-31.85625
51.59430122116689,0.0004125,0.0001375,-0.0,0.30795002,0.14295001,9.868051,-11.45625,22.9125,-31.85625
51.69606512890095,-0.0006875,0.000275,-0.0,0.30600002,0.14295001,9.87495,-11.587501,22.987501,-31.85625
51.797829036635,-0.0006875,0.000275,-0.0011,0.30600002,0.13800001,9.873,-11.587501,22.987501,-31.85625
51.89959294436906,-0.0006875,-0.000825,-0.0,0.30600002,0.14295001,9.865951,-11.45625,22.987501,-31.85625
52.001356852103115,0.0015125,0.000275,-0.0,0.29895002,0.141,9.87495,-11.45625,22.987501,-31.85625
52.103120759837175,-0.0006875,-0.000825,-0.0,0.30795002,0.14805001,9.87495,-11.45625,22.987501,-31.85625
52.204884667571235,-0.0006875,0.000275,-0.0,0.29895002,0.141,9.870001,-11.212501,23.04375,-31.85625
52.30664857530529,-0.0006875,0.000275,-0.0,0.29895002,0.141,9.870001,-11.2875,23.15625,-31.612501
52.40841248303935,0.0004125,0.000275,-0.0,0.30600002,0.14295001,9.868051,-11.2875,23.15625,-31.612501
52.5101763907734,-0.0006875,0.000275,-0.0011,0.29895002,0.15300001,9.873,-11.34375,23.456251,-31.44375
52.61194029850746,0.0004125,-0.000825,0.0011,0.30600002,0.162,9.868051,-11.34375,23.456251,-31.44375
52.713704206241516,0.0004125,-0.000825,0.0011,0.30600002,0.162,9.868051,-11.2875,23.5125,-31.44375
52.81546811397558,0.0004125,0.000275,-0.0,0.30795002,0.15,9.870001,-11.2875,23.5125,-31.44375
52.91723202170963,0.0004125,0.000275,-0.0011,0.30795002,0.15495001,9.865951,-11.45625,23.5125,-31.500002
53.01899592944369,-0.0006875,0.000275,-0.0,0.30600002,0.14505,9.877951,-11.45625,23.5125,-31.500002
53.120759837177744,0.0004125,-0.000825,-0.0,0.30600002,0.14805001,9.870001,-11.45625,23.5125,-31.500002
53.222523744911804,-0.0006875,0.000275,0.0011,0.31095,0.13800001,9.873,-11.8125,23.5125,-31.2
53.32428765264586,-0.00055,0.0001375,-0.0,0.29895002,0.15300001,9.870001,-11.8125,23.5125,-31.2
53.42605156037992,-0.00055,0.0001375,-0.0,0.31305,0.15705001,9.868051,-11.8125,23.212502,-31.143751
53.52781546811397,0.0004125,0.0001375,-0.0,0.30600002,0.14805001,9.870001,-11.8125,23.212502,-31.143751
53.62957937584803,0.0004125,0.0001375,-0.0,0.30795002,0.15495001,9.87495,-11.8125,23.212502,-31.143751
53.731343283582085,-0.00055,0.0001375,-0.0,0.30795002,0.15495001,9.87495,-12.0,23.400002,-31.312502
53.833107191316145,-0.00055,-0.000825,-0.0,0.31800002,0.141,9.865951,-12.0,23.400002,-31.312502
53.9348710990502,-0.00055,-0.000825,-0.0,0.31095,0.15300001,9.865951,-12.0,23.400002,-31.312502
54.03663500678426,-0.00055,0.0001375,-0.0,0.30795002,0.13800001,9.86295,-12.056251,23.15625,-31.143751
54.13839891451831,0.0004125,0.0001375,-0.0,0.30105,0.15495001,9.865951,-12.056251,23.15625,-31.143751
54.24016282225237,-0.00055,-0.000825,-0.0,0.31095,0.14295001,9.870001,-12.056251,23.15625,-31.143751
54.341926729986426,0.0004125,-0.000825,-0.0,0.30795002,0.14805001,9.868051,-12.0,23.2875,-31.3875
54.443690637720486,-0.00055,-0.000825,-0.0,0.30405003,0.13800001,9.880051,-11.94375,22.987501,-31.3875
54.54545454545454,-0.00055,0.000275,-0.0011,0.30600002,0.16005,9.873,-11.75625,22.987501,-31.312502
54.6472184531886,-0.00055,0.000275,-0.0011,0.30795002,0.15495001,9.873,-11.75625,22.987501,-31.312502
54.74898236092265,0.0004125,-0.000825,0.0,0.30795002,0.15495001,9.873,-11.700001,22.556252,-31.25625
54.850746268656714,0.0004125,0.000275,-0.0011,0.30600002,0.15,9.86295,-11.700001,22.556252,-31.25625
54.95251017639077,0.0004125,0.000275,0.0,0.30600002,0.14505,9.865951,-11.700001,22.556252,-31.25625
55.05427408412483,0.0004125,0.000275,0.0,0.30600002,0.14505,9.865951,-11.212501,22.612501,-31.556252
55.15603799185889,0.0004125,0.000275,0.0,0.30795002,0.14295001,9.877951,-11.212501,22.612501,-31.556252
55.25780189959294,0.0004125,0.000275,0.0,0.30600002,0.14295001,9.865951,-11.2875,22.6875,-31.800001
55.359565807327,-0.00055,-0.000825,0.0,0.31305,0.14505,9.868051,-11.2875,22.6875,-31.800001
55.461329715061055,-0.00055,-0.000825,0.0,0.31305,0.126,9.877951,-11.2875,22.6875,-31.800001
55.563093622795115,-0.00055,0.000275,0.0,0.31305,0.126,9.877951,-11.2875,22.6875,-31.800001
55.66485753052917,0.0004125,0.000275,0.0,0.31095,0.13095,9.873,-11.2875,22.743752,-31.612501
55.76662143826323,-0.00055,-0.000825,0.0,0.30795002,0.13605,9.873,-11.212501,23.04375,-31.743752
55.86838534599728,0.0004125,0.000275,0.0,0.30600002,0.141,9.86295,-11.45625,23.1,-31.85625
55.97014925373134,0.0004125,0.000275,0.0,0.30795002,0.126,9.870001,-11.45625,23.1,-31.85625
56.071913161465396,-0.00055,0.000275,-0.0011,0.30795002,0.13800001,9.87495,-11.34375,23.15625,-31.85625
56.17367706919946,0.00055,0.000275,0.0,0.31305,0.13800001,9.870001,-11.34375,23.15625,-31.85625
56.27544097693351,0.00055,0.000275,0.0,0.30600002,0.13800001,9.86295,-11.45625,22.987501,-31.9125
56.37720488466757,0.00055,0.000275,-0.0011,0.31095,0.12900001,9.880051,-11.45625,22.987501,-31.9125
56.47896879240162,-0.00055,-0.000825,0.0011,0.31305,0.12900001,9.868051,-11.512501,23.212502,-31.85625
56.580732700135684,0.0004125,-0.000825,0.0,0.30795002,0.126,9.873,-11.45625,23.15625,-31.987501
56.68249660786974,-0.00055,0.000275,0.0,0.29595003,0.12900001,9.877951,-11.212501,23.34375,-31.85625
56.7842605156038,0.0004125,0.000275,0.0,0.30795002,0.13305001,9.870001,-11.212501,23.34375,-31.85625
56.88602442333785,-0.00055,0.000275,-0.0011,0.31095,0.11895001,9.873,-11.043751,23.2875,-31.9125
56.98778833107191,0.0004125,0.000275,0.0,0.30600002,0.13095,9.882001,-11.043751,23.2875,-31.9125
57.089552238805965,-0.00055,0.0012375,0.0011,0.30795002,0.12900001,9.868051,-11.043751,23.2875,-31.9125
57.191316146540025,-0.00055,0.0012375,0.0011,0.30795002,0.12900001,9.868051,-10.856251,22.9125,-31.85625
57.29308005427408,-0.00055,-0.000825,0.0,0.31305,0.12900001,9.87495,-10.856251,22.9125,-31.85625
57.39484396200814,0.0004125,0.000275,-0.0011,0.31095,0.12405001,9.861,-10.556251,22.6875,-31.743752
57.49660786974219,0.0004125,0.000275,-0.0011,0.31095,0.13095,9.868051,-10.556251,22.6875,-31.743752
57.59837177747625,-0.00055,0.000275,0.0,0.30795002,0.12900001,9.873,-10.556251,22.6875,-31.743752
57.700135685210306,0.0004125,-0.000825,0.0,0.30600002,0.13095,9.87495,-10.6125,22.6875,-31.9125
57.801899592944366,0.0004125,-0.000825,-0.0011,0.30405003,0.13095,9.870001,-10.6125,22.6875,-31.9125
57.90366350067843,0.0004125,-0.000825,-0.0011,0.30405003,0.13095,9.870001,-10.6125,22.987501,-31.85625
58.00542740841248,-0.00055,-0.000825,0.0,0.30600002,0.12900001,9.87495,-10.6125,22.987501,-31.85625
58.10719131614654,-0.00055,0.000275,0.0,0.31305,0.13605,9.865951,-10.6125,22.987501,-31.85625
58.208955223880594,0.0004125,0.000275,-0.0011,0.31095,0.13305001,9.861,-10.44375,23.34375,-31.9125
58.310719131614654,0.0004125,0.000275,-0.0011,0.30600002,0.12900001,9.87495,-10.44375,23.34375,-31.9125
58.41248303934871,0.0004125,-0.000825,-0.0011,0.31800002,0.12405001,9.868051,-10.556251,23.212502,-31.743752
58.51424694708277,0.0004125,0.000275,0.0,0.30600002,0.126,9.873,-10.556251,23.212502,-31.743752
58.61601085481682,0.0004125,0.000275,0.0,0.31305,0.13305001,9.868051,-10.556251,23.212502,-31.743752
58.71777476255088,0.0004125,-0.000825,0.0,0.31305,0.13305001,9.868051,-10.556251,23.212502,-31.743752
58.819538670284935,-0.00055,-0.000825,0.0,0.30600002,0.13605,9.86295,-10.8,23.212502,-31.687502
58.921302578018995,0.0004125,-0.000825,0.0,0.31305,0.12900001,9.87495,-11.043751,23.15625,-31.612501
59.02306648575305,0.0004125,0.000275,0.0,0.30795002,0.126,9.87495,-11.043751,23.15625,-31.612501
59.12483039348711,0.0004125,0.000275,0.0011,0.30405003,0.13095,9.865951,-11.043751,23.15625,-31.612501
59.22659430122116,-0.00055,0.000275,0.0,0.29895002,0.12405001,9.873,-11.2875,23.15625,-31.556252
59.32835820895522,0.00055,0.000275,0.0,0.30795002,0.12105001,9.86295,-11.512501,23.212502,-31.3875
59.430122116689276,0.00055,0.000275,0.0,0.30795002,0.12105001,9.86295,-11.400001,23.1,-31.25625
59.531886024423336,0.00055,0.000275,0.0011,0.31305,0.13095,9.865951,-11.400001,23.1,-31.25625
59.63364993215739,0.00055,0.000275,0.0,0.29595003,0.12900001,9.873,-11.400001,23.1,-31.25625
59.73541383989145,0.00055,0.000275,-0.0011,0.31095,0.13305001,9.861,-11.212501,23.15625,-31.087502
59.8371777476255,0.00055,0.000275,-0.0011,0.30405003,0.13305001,9.873,-11.212501,23.15625,-31.087502
59.938941655359564,0.00055,-0.000825,0.0,0.30795002,0.12900001,9.868051,-11.2875,22.987501,-31.25625
60.04070556309362,-0.00055,-0.000825,0.0,0.30600002,0.13800001,9.880051,-11.15625,23.1,-31.087502
60.14246947082768,-0.00055,-0.000825,0.0,0.30105,0.13305001,9.868051,-10.9125,23.1,-31.087502
60.24423337856173,0.00055,0.000275,0.0,0.30600002,0.126,9.86295,-10.9125,23.1,-31.087502
60.34599728629579,0.00055,0.000275,0.0,0.30600002,0.126,9.86295,-10.6875,23.04375,-31.087502
60.447761194029844,0.00055,0.000275,0.0011,0.31095,0.13605,9.865951,-10.6875,23.04375,-31.087502
60.549525101763905,-0.00055,0.000275,-0.0011,0.30600002,0.13800001,9.87495,-10.5,23.34375,-31.2
60.65128900949796,-0.00055,0.000275,0.0,0.31095,0.12405001,9.87495,-10.5,23.34375,-31.2
60.75305291723202,-0.0006875,0.000275,-0.0011,0.31095,0.12105001,9.873,-10.25625,23.400002,-31.612501
60.85481682496608,-0.0006875,0.000275,-0.0011,0.30405003,0.13800001,9.86295,-10.25625,23.400002,-31.612501
60.95658073270013,0.000275,0.000275,0.0,0.30405003,0.13800001,9.86295,-10.25625,23.400002,-31.612501
61.05834464043419,0.000275,0.000275,0.0,0.30600002,0.14295001,9.873,-10.25625,23.5125,-31.44375
61.160108548168246,-0.0006875,-0.0006875,0.0,0.31500003,0.15,9.873,-10.25625,23.5125,-31.44375
61.26187245590231,-0.0006875,0.000275,0.0,0.30405003,0.14805001,9.877951,-10.25625,23.5125,-31.44375
61.36363636363636,-0.0006875,0.000275,0.0,0.30405003,0.14805001,9.877951,-10.743751,23.400002,-31.556252
61.46540027137042,0.000275,-0.0006875,0.0,0.30600002,0.15495001,9.868051,-10.743751,23.400002,-31.556252
61.56716417910447,-0.0006875,0.000275,0.0,0.30600002,0.14295001,9.873,-10.743751,23.400002,-31.556252
61.668928086838534,0.000275,0.000275,0.0,0.30795002,0.13605,9.868051,-10.556251,23.400002,-31.612501
61.77069199457259,-0.0006875,-0.0006875,0.0,0.30405003,0.13800001,9.868051,-10.6875,23.400002,-31.612501
61.87245590230665,0.000275,0.001375,0.0,0.30795002,0.13095,9.868051,-10.6875,23.400002,-31.612501
61.9742198100407,0.000275,0.000275,0.0,0.30600002,0.14295001,9.873,-10.6875,23.400002,-31.612501
62.07598371777476,0.000275,0.000275,0.0011,0.29895002,0.14805001,9.868051,-11.043751,23.15625,-31.312502
62.177747625508815,0.000275,0.000275,-0.0011,0.31500003,0.14805001,9.87495,-11.043751,23.15625,-31.312502
62.279511533242875,0.000275,0.000275,-0.0011,0.30600002,0.15,9.865951,-11.043751,23.15625,-31.312502
62.38127544097693,0.001375,0.000275,0.0,0.30600002,0.15,9.865951,-11.043751,23.15625,-31.312502
62.48303934871099,-0.0006875,0.000275,0.0,0.31095,0.15495001,9.868051,-11.15625,23.212502,-31.2
62.58480325644504,-0.0006875,0.000275,0.0,0.30795002,0.16005,9.873,-11.2875,23.212502,-31.3875
62.6865671641791,0.000275,0.000275,0.0,0.30405003,0.14295001,9.868051,-11.2875,23.212502,-31.3875
62.788331071913156,0.000275,-0.0006875,-0.0011,0.31095,0.15705001,9.868051,-11.2875,23.212502,-31.3875
62.890094979647216,0.000275,-0.0006875,-0.0011,0.31095,0.15705001,9.868051,-10.9875,23.1,-31.312502
62.99185888738127,-0.0006875,0.000275,0.0,0.31095,0.13305001,9.870001,-10.9875,23.1,-31.312502
63.09362279511533,0.000275,0.000275,0.0,0.30795002,0.13605,9.865951,-10.9125,23.1,-31.2
63.19538670284938,0.000275,0.000275,0.0,0.30105,0.12900001,9.865951,-10.9125,23.1,-31.2
63.297150610583444,0.000275,0.001375,-0.0011,0.30795002,0.13800001,9.865951,-10.9125,23.1,-31.2
63.3989145183175,0.000275,0.000275,0.0,0.30105,0.13605,9.870001,-10.8,23.15625,-31.44375
63.50067842605156,0.000275,0.000275,0.0,0.30795002,0.13305001,9.865951,-10.8,23.15625,-31.44375
63.60244233378561,-0.0006875,0.000275,0.0,0.31500003,0.126,9.868051,-10.8,23.15625,-31.44375
63.70420624151967,-0.0006875,0.000275,0.0,0.30600002,0.12900001,9.865951,-10.8,23.15625,-31.612501
63.80597014925373,-0.0006875,0.000275,0.0,0.30795002,0.12405001,9.87495,-10.8,23.15625,-31.612501
63.907734056987785,0.000275,0.000275,0.0,0.30795002,0.12405001,9.87495,-10.8,23.15625,-31.612501
64.00949796472185,0.000275,-0.0006875,0.0,0.30795002,0.13305001,9.868051,-10.8,23.1,-31.85625
64.1112618724559,0.000275,-0.0006875,0.0,0.30795002,0.13305001,9.868051,-10.8,23.34375,-32.15625
64.21302578018995,-0.0006875,0.000275,0.0,0.30405003,0.13305001,9.865951,-10.8,23.34375,-32.15625
64.31478968792402,-0.0006875,0.000275,0.0,0.30600002,0.126,9.868051,-10.8,23.34375,-32.15625
64.41655359565807,0.000275,-0.0006875,0.0,0.31095,0.13800001,9.877951,-10.9125,23.34375,-32.15625
64.51831750339213,0.000275,0.000275,-0.0011,0.31095,0.141,9.865951,-10.9125,23.34375,-32.15625
64.62008141112618,-0.0006875,0.000275,0.0,0.30405003,0.141,9.880051,-10.9125,23.34375,-32.15625
64.72184531886025,0.000275,-0.0006875,0.0,0.30795002,0.12405001,9.865951,-11.15625,23.212502,-32.287502
64.8236092265943,-0.0006875,-0.0006875,0.0,0.30405003,0.13605,9.873,-11.2875,23.400002,-32.287502
64.92537313432835,0.000275,-0.0006875,-0.0011,0.30795002,0.13095,9.877951,-11.2875,23.400002,-32.287502
65.0271370420624,-0.0006875,-0.0006875,0.0,0.30795002,0.12900001,9.877951,-11.587501,23.2875,-32.4
65.12890094979647,0.000275,-0.0006875,0.0,0.30795002,0.126,9.865951,-11.587501,23.2875,-32.4
65.23066485753053,0.000275,-0.0006875,0.0,0.30795002,0.126,9.865951,-11.8125,23.34375,-32.100002
65.33242876526458,0.000275,0.000275,0.0,0.31095,0.126,9.868051,-11.8125,23.34375,-32.100002
65.43419267299863,0.000275,0.000275,0.0,0.30795002,0.12900001,9.870001,-11.8125,23.34375,-32.100002
65.5359565807327,0.000275,0.000275,0.0,0.30795002,0.12405001,9.868051,-11.8125,23.400002,-31.9125
65.63772048846675,0.000275,0.000275,0.0,0.31305,0.126,9.868051,-11.8125,23.400002,-31.9125
65.73948439620081,0.001375,0.000275,0.0,0.30600002,0.13800001,9.870001,-12.0,23.456251,-31.743752
65.84124830393486,-0.0006875,0.000275,0.0,0.31095,0.13305001,9.87495,-12.0,23.456251,-31.743752
65.94301221166893,0.000275,0.000275,0.0,0.30405003,0.12405001,9.868051,-11.75625,23.456251,-31.687502
66.04477611940298,-0.0006875,-0.0006875,0.0,0.30405003,0.12405001,9.868051,-11.75625,23.456251,-31.687502
66.14654002713704,-0.0006875,-0.0006875,0.0,0.30795002,0.14295001,9.870001,-11.75625,23.456251,-31.687502
66.24830393487109,-0.0006875,0.000275,0.0,0.30405003,0.13605,9.873,-11.587501,23.34375,-31.612501
66.35006784260516,-0.0006875,0.000275,0.0,0.30795002,0.13605,9.868051,-11.587501,23.34375,-31.612501
66.45183175033921,-0.0006875,0.000275,-0.0011,0.30795002,0.13605,9.868051,-11.587501,23.34375,-31.612501
66.55359565807326,-0.0006875,0.000275,-0.0011,0.31305,0.13605,9.865951,-11.400001,23.34375,-31.44375
66.65535956580733,-0.0006875,0.000275,-0.0011,0.30405003,0.12105001,9.873,-11.400001,23.34375,-31.44375
66.75712347354138,-0.0006875,0.000275,0.0,0.30795002,0.14295001,9.870001,-11.45625,23.1,-31.44375
66.85888738127544,-0.0006875,0.000275,0.0,0.30795002,0.12900001,9.870001,-11.45625,23.1,-31.44375
66.96065128900949,0.000275,0.000275,0.0,0.30795002,0.12900001,9.870001,-11.45625,23.1,-31.44375
67.06241519674356,-0.0006875,0.000275,0.0,0.30105,0.13095,9.873,-11.512501,23.212502,-31.3875
67.16417910447761,-0.0006875,-0.0006875,0.0,0.31095,0.126,9.870001,-11.512501,23.212502,-31.3875
67.26594301221166,-0.0006875,-0.0006875,0.0,0.31095,0.126,9.870001,-11.512501,23.15625,-31.687502
67.36770691994572,0.000275,0.000275,0.0,0.30405003,0.126,9.870001,-11.512501,23.15625,-31.687502
67.46947082767979,0.000275,-0.0006875,0.0,0.30795002,0.13605,9.86295,-11.512501,23.15625,-31.687502
67.57123473541384,0.000275,0.000275,0.0,0.31800002,0.13605,9.86295,-11.512501,23.1,-31.85625
67.67299864314789,0.000275,0.000275,0.0,0.30600002,0.13305001,9.870001,-11.512501,23.1,-31.85625
67.77476255088195,0.0004125,-0.000825,0.0001375,0.30105,0.126,9.86295,-11.34375,23.04375,-31.9125
67.87652645861601,0.0004125,-0.000825,0.0001375,0.30600002,0.126,9.868051,-11.887501,23.2875,-31.743752
67.97829036635007,0.0004125,0.000275,0.0001375,0.30600002,0.13800001,9.870001,-11.887501,23.2875,-31.743752
68.08005427408412,-0.0006875,0.000275,0.0001375,0.30600002,0.14505,9.873,-11.75625,23.34375,-31.687502
68.18181818181817,-0.0006875,0.000275,0.0001375,0.30600002,0.14505,9.873,-11.587501,23.400002,-31.987501
68.28358208955224,0.0004125,-0.000825,0.0011,0.31095,0.13605,9.868051,-11.587501,23.400002,-31.987501
68.3853459972863,-0.0006875,0.000275,0.0001375,0.30795002,0.141,9.880051,-11.587501,23.400002,-31.987501
68.48710990502035,-0.0006875,0.000275,0.0001375,0.30405003,0.13605,9.868051,-11.587501,23.400002,-31.987501
68.5888738127544,-0.0006875,0.000275,0.0011,0.30600002,0.14295001,9.87495,-11.400001,23.212502,-32.04375
68.69063772048847,-0.0006875,0.000275,0.0001375,0.29895002,0.14295001,9.873,-11.512501,23.2875,-31.743752
68.79240162822252,-0.0006875,0.000275,0.0001375,0.30600002,0.13800001,9.873,-11.512501,23.2875,-31.743752
68.89416553595657,-0.0006875,0.000275,-0.0009625,0.30795002,0.13800001,9.865951,-11.512501,23.2875,-31.743752
68.99592944369063,0.0004125,0.000275,0.0001375,0.29895002,0.13605,9.87495,-11.587501,23.1,-31.687502
69.0976933514247,0.0004125,0.000275,0.0001375,0.31500003,0.13800001,9.868051,-11.587501,23.1,-31.687502
69.19945725915875,0.0004125,0.000275,0.0001375,0.30405003,0.141,9.865951,-11.512501,23.15625,-31.687502
69.3012211668928,0.0004125,0.000275,0.0001375,0.31095,0.13305001,9.868051,-11.512501,23.15625,-31.687502
69.40298507462686,0.0004125,0.000275,0.0001375,0.30795002,0.13605,9.86295,-11.2875,23.04375,-31.44375
69.50474898236092,0.0004125,0.000275,0.0001375,0.30795002,0.13605,9.87495,-11.2875,23.04375,-31.44375
69.60651289009498,0.0004125,0.000275,0.0001375,0.30795002,0.13605,9.87495,-11.2875,23.04375,-31.44375
69.70827679782903,-0.0006875,0.000275,0.0001375,0.31305,0.12900001,9.865951,-11.212501,23.1,-31.743752
69.8100407055631,0.0004125,-0.000825,0.0001375,0.30405003,0.12900001,9.877951,-11.212501,23.1,-31.743752
69.91180461329715,0.0004125,-0.000825,0.0001375,0.30405003,0.12900001,9.877951,-11.2875,23.2875,-31.85625
70.0135685210312,-0.0006875,0.000275,0.0001375,0.30795002,0.12900001,9.870001,-11.2875,23.2875,-31.85625
70.11533242876526,-0.0006875,0.000275,0.0011,0.31305,0.12900001,9.868051,-11.2875,23.2875,-31.85625
70.21709633649932,-0.0006875,0.000275,0.0011,0.31305,0.13095,9.87495,-11.2875,23.2875,-31.85625
70.31886024423338,-0.0006875,0.000275,0.0001375,0.31305,0.13095,9.87495,-11.400001,23.456251,-31.44375
70.42062415196743,0.0004125,-0.000825,0.0001375,0.31095,0.13305001,9.868051,-11.512501,23.643751,-31.44375
70.52238805970148,0.0004125,0.000275,-0.0009625,0.30600002,0.13605,9.873,-11.512501,23.643751,-31.44375
70.62415196743555,-0.0006875,-0.000825,0.0001375,0.31095,0.13800001,9.86295,-11.512501,23.643751,-31.44375
70.7259158751696,-0.0006875,0.000275,-0.0009625,0.30795002,0.14295001,9.861,-11.45625,23.5125,-31.612501
70.82767978290366,0.0004125,0.000275,0.0001375,0.30405003,0.14295001,9.873,-11.45625,23.5125,-31.612501
70.92944369063771,-0.0006875,0.000275,0.0001375,0.30405003,0.13800001,9.873,-11.512501,23.5125,-31.500002
71.03120759837178,-0.0006875,0.000275,0.0001375,0.30795002,0.126,9.873,-11.512501,23.400002,-31.612501
71.13297150610583,-0.0006875,0.000275,0.0001375,0.30405003,0.13305001,9.877951,-11.587501,23.2875,-31.987501
71.23473541383989,0.0004125,-0.000825,0.0001375,0.30795002,0.13095,9.868051,-11.587501,23.2875,-31.987501
71.33649932157394,0.0004125,-0.000825,0.0001375,0.30405003,0.12900001,9.870001,-11.587501,23.2875,-31.987501
71.438263229308,-0.0006875,0.000275,0.0001375,0.30600002,0.12900001,9.87495,-11.45625,22.987501,-31.85625
71.54002713704206,0.0004125,0.000275,0.0001375,0.30405003,0.13095,9.873,-11.45625,22.987501,-31.85625
71.64179104477611,0.0004125,0.000275,0.0001375,0.30405003,0.13095,9.873,-11.45625,22.85625,-31.85625
71.74355495251017,-0.0006875,0.0012375,0.0001375,0.30795002,0.13095,9.861,-11.45625,22.85625,-31.85625
71.84531886024423,0.0004125,0.000275,0.0001375,0.30405003,0.12105001,9.868051,-11.45625,22.85625,-31.85625
71.94708276797829,0.0004125,0.000275,0.0001375,0.31800002,0.13095,9.865951,-11.45625,22.85625,-31.85625
72.04884667571234,-0.0006875,0.000275,-0.0009625,0.31800002,0.13095,9.865951,-11.212501,22.743752,-31.9125
72.1506105834464,0.0004125,0.000275,-0.0009625,0.31305,0.126,9.870001,-11.212501,22.743752,-31.9125
72.25237449118046,-0.0006875,0.000275,0.0001375,0.30105,0.12900001,9.868051,-10.9875,22.612501,-31.612501
72.35413839891451,-0.0006875,0.000275,0.0001375,0.30600002,0.126,9.865951,-10.9875,22.612501,-31.612501
72.45590230664857,-0.0006875,-0.000825,0.0001375,0.30105,0.13095,9.868051,-10.9875,22.612501,-31.612501
72.55766621438264,-0.0006875,-0.000825,0.0001375,0.30105,0.13095,9.868051,-10.856251,22.5,-31.800001
72.65943012211669,0.0004125,-0.000825,0.0001375,0.31305,0.12900001,9.870001,-10.856251,22.5,-31.800001
72.76119402985074,-0.0006875,0.000275,0.0001375,0.30600002,0.13305001,9.870001,-10.856251,22.5,-31.800001
72.8629579375848,-0.0006875,0.000275,0.0001375,0.30795002,0.13800001,9.868051,-10.743751,22.6875,-31.85625
72.96472184531886,0.0004125,0.000275,0.0001375,0.31095,0.13605,9.87495,-10.743751,22.6875,-31.85625
73.06648575305292,-0.0006875,0.000275,0.0001375,0.30105,0.141,9.865951,-10.856251,22.6875,-31.687502
73.16824966078697,0.0004125,0.000275,0.0001375,0.31095,0.13305001,9.868051,-10.856251,22.6875,-31.687502
73.27001356852102,-0.0006875,-0.000825,0.0001375,0.30405003,0.13095,9.865951,-10.856251,22.6875,-31.687502
73.37177747625509,0.0004125,-0.000825,0.0001375,0.31095,0.13605,9.87495,-10.6125,22.85625,-31.743752
73.47354138398914,0.0004125,-0.000825,0.0001375,0.30405003,0.13095,9.868051,-10.6125,22.85625,-31.743752
73.5753052917232,-0.0006875,0.000275,0.0011,0.30405003,0.13095,9.868051,-10.6125,22.85625,-31.743752
73.67706919945725,-0.0006875,-0.000825,0.0001375,0.29895002,0.12900001,9.873,-10.743751,22.9125,-31.743752
73.77883310719132,-0.0006875,0.000275,-0.0009625,0.31305,0.141,9.87495,-10.743751,22.9125,-31.743752
73.88059701492537,-0.0006875,0.000275,-0.0009625,0.31305,0.141,9.87495,-10.856251,22.9125,-31.85625
73.98236092265942,-0.0006875,0.000275,0.0001375,0.31305,0.13605,9.870001,-10.856251,22.9125,-31.85625
74.08412483039348,0.0004125,0.000275,0.0001375,0.30795002,0.13800001,9.86295,-10.856251,22.9125,-31.85625
74.18588873812755,0.0004125,0.000275,0.0001375,0.30795002,0.13305001,9.868051,-10.856251,22.9125,-31.85625
74.2876526458616,-0.0006875,0.000275,0.0001375,0.30600002,0.13800001,9.868051,-10.9125,22.85625,-31.987501
74.38941655359565,-0.0006875,0.000275,0.0001375,0.30105,0.12900001,9.870001,-10.9125,22.85625,-31.987501
74.4911804613297,0.0004125,0.000275,0.0001375,0.30105,0.12900001,9.870001,-11.15625,22.800001,-32.2125
74.59294436906377,-0.0006875,0.000275,0.0001375,0.31095,0.14805001,9.87495,-11.15625,22.800001,-32.2125
74.69470827679783,-0.0006875,-0.000825,0.0011,0.29895002,0.15300001,9.870001,-11.15625,22.800001,-32.2125
74.79647218453188,0.0004125,-0.000825,0.0,0.29895002,0.14295001,9.873,-11.1,22.85625,-31.9125
74.89823609226593,0.0004125,-0.000825,0.0011,0.30795002,0.12900001,9.868051,-11.043751,22.612501,-31.800001
75.0,0.0004125,0.0001375,0.0,0.31305,0.13305001,9.873,-10.6125,22.743752,-31.687502
75.10176390773405,-0.00055,0.0001375,0.0,0.30795002,0.12900001,9.877951,-10.6125,22.743752,-31.687502
75.2035278154681,-0.00055,0.0001375,0.0,0.30795002,0.126,9.877951,-10.6125,22.743752,-31.687502
75.30529172320217,0.0004125,0.0001375,0.0,0.30795002,0.126,9.877951,-10.8,22.9125,-31.687502
75.40705563093623,-0.00055,0.0001375,0.0,0.29895002,0.141,9.861,-10.8,23.1,-31.612501
75.50881953867028,-0.00055,-0.000825,0.0,0.31800002,0.14505,9.865951,-10.8,23.1,-31.612501
75.61058344640433,0.0004125,0.0001375,0.0,0.30600002,0.14295001,9.868051,-10.8,23.1,-31.612501
75.7123473541384,0.0004125,0.0001375,0.0,0.30600002,0.14805001,9.865951,-10.8,23.1,-31.612501
75.81411126187245,0.0004125,-0.000825,0.0011,0.31305,0.14295001,9.870001,-10.743751,23.212502,-31.612501
75.91587516960651,-0.00055,0.0001375,0.0,0.30795002,0.14505,9.877951,-10.9125,23.212502,-31.44375
76.01763907734056,-0.00055,0.0001375,0.0,0.30405003,0.13095,9.870001,-10.9125,23.212502,-31.44375
76.11940298507463,0.0004125,0.0001375,0.0,0.30405003,0.13800001,9.870001,-10.8,23.5125,-31.3875
76.22116689280868,0.0004125,-0.000825,0.0,0.31305,0.13605,9.870001,-10.8,23.5125,-31.3875
76.32293080054274,0.0004125,-0.000825,0.0,0.30405003,0.141,9.868051,-10.743751,23.7,-31.44375
76.42469470827679,0.0004125,-0.000825,0.0,0.31500003,0.15,9.868051,-10.743751,23.7,-31.44375
76.52645861601086,0.0004125,0.0001375,0.0,0.31500003,0.15,9.868051,-10.743751,23.7,-31.44375
76.62822252374491,-0.00055,-0.000825,0.0,0.30105,0.13305001,9.870001,-10.9125,23.7,-31.556252
76.72998643147896,0.0004125,0.0012375,0.0,0.30600002,0.14505,9.86295,-10.9125,23.7,-31.556252
76.83175033921302,0.0004125,0.0012375,0.0,0.30600002,0.14505,9.86295,-10.9875,23.5125,-31.800001
76.93351424694708,-0.00055,0.0001375,-0.0009625,0.31095,0.13305001,9.868051,-10.9875,23.5125,-31.800001
77.03527815468114,0.0004125,0.0012375,-0.0009625,0.30405003,0.14505,9.870001,-10.9875,23.5125,-31.800001
77.13704206241519,0.0004125,-0.000825,0.0,0.30600002,0.14805001,9.870001,-10.9875,23.5125,-31.800001
77.23880597014924,-0.00055,0.0001375,0.0,0.31095,0.141,9.87495,-11.043751,23.2875,-31.612501
77.34056987788331,-0.00055,0.0001375,0.0,0.30795002,0.14295001,9.873,-11.15625,23.15625,-31.612501
77.44233378561736,-0.00055,0.0001375,0.0,0.30795002,0.14295001,9.873,-11.15625,23.15625,-31.612501
77.54409769335142,-0.00055,0.0001375,0.0,0.31095,0.141,9.873,-11.15625,23.15625,-31.612501
77.64586160108547,0.0004125,0.0012375,0.0,0.30600002,0.13800001,9.877951,-11.15625,23.15625,-31.612501
77.74762550881954,0.0004125,0.0012375,0.0,0.30600002,0.13800001,9.877951,-11.212501,23.15625,-31.312502
77.84938941655359,0.0004125,-0.000825,0.0,0.31095,0.13305001,9.873,-11.212501,23.15625,-31.312502
77.95115332428765,-0.00055,0.0001375,0.0011,0.31095,0.13095,9.873,-11.212501,23.15625,-31.312502
78.0529172320217,0.0015125,-0.000825,0.0,0.30795002,0.12900001,9.868051,-11.212501,23.15625,-31.44375
78.15468113975577,0.0015125,-0.000825,0.0,0.30600002,0.14805001,9.86295,-11.212501,23.15625,-31.44375
78.25644504748982,0.0004125,0.0001375,0.0,0.30795002,0.13800001,9.873,-11.1,23.1,-31.3875
78.35820895522387,0.0004125,0.0001375,0.0,0.31500003,0.141,9.868051,-11.1,23.1,-31.3875
78.45997286295794,0.0004125,0.0001375,0.0,0.30405003,0.14295001,9.870001,-11.1,23.1,-31.3875
78.561736770692,0.0004125,0.0001375,0.0,0.30405003,0.14295001,9.870001,-11.2875,22.987501,-31.25625
78.66350067842605,0.0004125,0.0001375,0.0,0.31500003,0.13605,9.873,-11.2875,22.987501,-31.25625
78.7652645861601,0.0004125,0.0001375,0.0,0.30405003,0.13800001,9.87495,-11.34375,22.9125,-31.312502
78.86702849389417,0.0004125,0.0001375,0.0,0.30795002,0.141,9.87495,-11.34375,22.9125,-31.312502
78.96879240162822,-0.00055,-0.000825,0.0,0.30795002,0.141,9.87495,-11.34375,22.9125,-31.312502
79.07055630936227,-0.00055,-0.000825,0.0,0.29895002,0.141,9.873,-11.34375,22.987501,-31.143751
79.17232021709633,0.0004125,0.0001375,0.0,0.31095,0.13800001,9.870001,-11.34375,22.987501,-31.143751
79.2740841248304,0.0004125,0.0001375,0.0,0.30795002,0.13605,9.870001,-11.34375,22.987501,-31.143751
79.37584803256445,-0.00055,0.0001375,0.0,0.30600002,0.13800001,9.868051,-11.34375,22.85625,-31.143751
79.4776119402985,0.0004125,0.0001375,0.0,0.30600002,0.13605,9.865951,-11.34375,22.85625,-31.143751
79.57937584803256,0.0004125,0.0001375,0.0,0.30795002,0.14295001,9.868051,-11.34375,22.85625,-31.143751
79.68113975576662,0.0004125,0.0001375,-0.0009625,0.30405003,0.14505,9.870001,-11.212501,23.04375,-31.2
79.78290366350068,-0.00055,0.0001375,0.0,0.30795002,0.13605,9.873,-11.212501,23.04375,-31.2
79.88466757123473,0.0004125,0.0001375,0.0,0.31305,0.141,9.87495,-11.212501,22.987501,-31.612501
79.98643147896878,0.0004125,-0.000825,0.0,0.31095,0.15,9.868051,-11.212501,22.987501,-31.612501
80.08819538670285,0.0004125,0.0001375,-0.0009625,0.30600002,0.14805001,9.868051,-10.856251,22.987501,-31.612501
80.1899592944369,-0.00055,0.0001375,0.0,0.30600002,0.14295001,9.870001,-10.856251,22.987501,-31.612501
80.29172320217096,-0.00055,0.0001375,0.0,0.30600002,0.14295001,9.870001,-10.8,23.04375,-31.743752
80.39348710990501,-0.00055,-0.000825,0.0,0.31800002,0.13800001,9.880051,-10.8,23.04375,-31.743752
80.49525101763908,0.0004125,0.0001375,0.0,0.30105,0.141,9.873,-10.8,23.04375,-31.612501
80.59701492537313,-0.00055,0.0001375,0.0,0.30795002,0.14295001,9.868051,-10.8,23.04375,-31.612501
80.69877883310718,-0.00055,0.0001375,0.0,0.30600002,0.13800001,9.87495,-10.8,23.04375,-31.612501
80.80054274084124,0.0004125,0.0001375,0.0,0.30600002,0.13800001,9.87495,-10.6125,23.1,-31.687502
80.9023066485753,0.0004125,0.0001375,0.0,0.31305,0.13095,9.865951,-10.6125,23.1,-31.687502
81.00407055630936,-0.00055,0.0001375,0.0,0.30600002,0.14805001,9.873,-10.6125,23.34375,-31.687502
81.10583446404341,0.0004125,0.0001375,0.0,0.31095,0.141,9.870001,-10.6125,23.34375,-31.687502
81.20759837177748,-0.00055,0.0001375,-0.0009625,0.30600002,0.13800001,9.86295,-10.6125,23.34375,-31.687502
81.30936227951153,-0.00055,0.0001375,0.0,0.29895002,0.141,9.870001,-10.743751,23.34375,-31.612501
81.41112618724559,-0.00055,0.0001375,0.0,0.30795002,0.13800001,9.865951,-10.743751,23.34375,-31.612501
81.51289009497964,-0.00055,0.0001375,0.0,0.30795002,0.13800001,9.865951,-10.743751,23.34375,-31.612501
81.6146540027137,0.0004125,0.0001375,-0.0009625,0.30795002,0.14505,9.86295,-10.6875,23.400002,-31.44375
81.71641791044776,-0.00055,0.0001375,-0.0009625,0.30795002,0.141,9.865951,-10.6875,23.400002,-31.44375
81.81818181818181,0.0004125,0.000275,-0.0009625,0.30105,0.141,9.873,-10.9125,23.5125,-31.25625
81.91994572591587,0.0004125,0.000275,-0.0009625,0.30405003,0.13605,9.865951,-10.9125,23.5125,-31.25625
82.02170963364993,-0.00055,-0.000825,0.0,0.30405003,0.13605,9.865951,-10.9125,23.5125,-31.25625
82.12347354138399,0.0004125,0.000275,-0.0009625,0.31305,0.13800001,9.87495,-10.9875,23.2875,-31.312502
82.22523744911804,-0.00055,0.000275,-0.0009625,0.30600002,0.14505,9.873,-10.9875,23.2875,-31.312502
82.3270013568521,-0.00055,0.000275,-0.0009625,0.31500003,0.14805001,9.865951,-10.9875,23.2875,-31.312502
82.42876526458616,0.0004125,0.000275,0.0,0.31500003,0.14805001,9.865951,-11.15625,23.5125,-31.143751
82.53052917232021,-0.00055,0.000275,-0.0009625,0.31305,0.14505,9.87495,-11.15625,23.5125,-31.143751
82.63229308005427,-0.00055,0.000275,-0.0009625,0.30600002,0.13800001,9.873,-11.15625,23.5125,-31.143751
82.73405698778832,0.0004125,0.000275,0.0,0.30600002,0.13800001,9.873,-11.043751,23.75625,-30.956251
82.83582089552239,0.0004125,0.000275,0.0,0.30600002,0.14805001,9.868051,-11.043751,23.75625,-30.956251
82.93758480325644,-0.00055,0.000275,0.0,0.30600002,0.13800001,9.877951,-11.45625,23.7,-30.712502
83.0393487109905,-0.00055,0.000275,0.0,0.30795002,0.126,9.870001,-11.45625,23.7,-30.712502
83.14111261872455,-0.00055,0.000275,0.0,0.30795002,0.126,9.870001,-11.2875,23.7,-30.712502
83.24287652645862,-0.00055,0.000275,-0.0009625,0.30795002,0.13305001,9.859051,-11.45625,23.587502,-30.656252
83.34464043419267,0.0004125,0.000275,0.0,0.31305,0.13800001,9.870001,-11.512501,23.456251,-30.6
83.44640434192672,-0.00055,-0.000825,0.0,0.31095,0.14295001,9.868051,-11.512501,23.456251,-30.6
83.54816824966078,-0.00055,0.000275,0.0,0.30600002,0.14505,9.868051,-11.212501,23.400002,-30.900002
83.64993215739484,-0.00055,0.000275,0.0,0.31500003,0.13605,9.873,-11.212501,23.400002,-30.900002
83.7516960651289,0.0004125,0.000275,0.0011,0.31500003,0.13605,9.873,-11.212501,23.400002,-30.900002
83.85345997286295,-0.00055,-0.000825,0.0,0.31095,0.13800001,9.865951,-11.212501,23.587502,-30.900002
83.95522388059702,0.0004125,0.000275,0.0,0.30405003,0.14295001,9.87495,-11.212501,23.587502,-30.900002
84.05698778833107,0.0004125,-0.000825,0.0,0.30105,0.141,9.873,-11.15625,23.34375,-31.087502
84.15875169606512,0.0004125,-0.000825,0.0,0.31305,0.14295001,9.865951,-11.15625,23.34375,-31.087502
84.26051560379918,0.0004125,-0.000825,0.0,0.30600002,0.141,9.873,-11.15625,23.34375,-31.087502
84.36227951153325,0.0004125,-0.000825,0.0,0.30600002,0.141,9.873,-11.043751,23.400002,-31.312502
84.4640434192673,-0.00055,0.000275,-0.0009625,0.30795002,0.13095,9.86295,-11.043751,23.400002,-31.312502
84.56580732700135,0.0004125,-0.000825,0.0,0.30600002,0.13605,9.870001,-11.043751,23.34375,-31.500002
84.6675712347354,0.0004125,-0.000825,0.0,0.30105,0.13305001,9.865951,-11.043751,23.15625,-31.687502
84.76933514246947,-0.00055,0.000275,0.0,0.31305,0.13305001,9.87495,-11.043751,23.15625,-31.687502
84.87109905020353,-0.00055,0.000275,0.0,0.31095,0.13095,9.868051,-10.9875,23.2875,-31.687502
84.97286295793758,-0.00055,0.000275,0.0,0.31095,0.13095,9.868051,-10.9875,23.2875,-31.687502
85.07462686567163,0.0004125,0.000275,-0.0009625,0.30405003,0.14505,9.868051,-10.9875,23.2875,-31.687502
85.1763907734057,-0.00055,0.000275,0.0011,0.31305,0.13605,9.865951,-10.9875,23.2875,-31.687502
85.27815468113975,-0.00055,0.000275,0.0011,0.31305,0.13605,9.865951,-10.856251,23.212502,-31.9125
85.3799185888738,-0.00055,0.000275,0.0,0.31500003,0.13800001,9.865951,-10.856251,23.212502,-31.9125
85.48168249660786,-0.00055,0.000275,0.0,0.30600002,0.13605,9.870001,-11.043751,23.34375,-31.612501
85.58344640434193,-0.00055,0.000275,0.0,0.31095,0.14505,9.870001,-11.043751,23.34375,-31.612501
85.68521031207598,-0.00055,0.000275,-0.0009625,0.31095,0.14505,9.870001,-11.043751,23.34375,-31.612501
85.78697421981003,-0.00055,0.000275,0.0,0.30105,0.15,9.868051,-11.212501,23.1,-31.687502
85.88873812754409,-0.00055,0.000275,0.0,0.31800002,0.14295001,9.885,-11.212501,23.1,-31.687502
85.99050203527815,0.0004125,0.000275,-0.0009625,0.30600002,0.13800001,9.877951,-11.2875,23.1,-31.687502
86.09226594301221,-0.00055,-0.000825,0.0,0.30795002,0.13605,9.870001,-11.2875,23.1,-31.687502
86.19402985074626,0.0004125,0.000275,0.0,0.30795002,0.12900001,9.868051,-11.34375,23.04375,-31.743752
86.29579375848031,0.0004125,0.000275,0.0,0.31305,0.12900001,9.861,-11.34375,23.04375,-31.743752
86.39755766621438,-0.00055,-0.000825,0.0,0.30600002,0.13605,9.877951,-11.34375,23.04375,-31.743752
86.49932157394844,-0.00055,-0.000825,0.0,0.30600002,0.13605,9.877951,-11.2875,23.1,-31.612501
86.60108548168249,0.0004125,0.000275,0.0011,0.30600002,0.13095,9.877951,-11.2875,23.1,-31.612501
86.70284938941654,0.0004125,0.000275,0.0,0.31500003,0.141,9.865951,-11.34375,23.212502,-31.500002
86.80461329715061,0.0004125,0.000275,0.0,0.30600002,0.126,9.87495,-11.34375,23.212502,-31.500002
86.90637720488466,0.0004125,0.000275,0.0,0.30600002,0.126,9.87495,-11.34375,23.212502,-31.500002
87.00814111261872,0.0004125,-0.000825,0.0,0.31095,0.13800001,9.86295,-11.2875,23.34375,-31.500002
87.10990502035278,-0.00055,0.000275,0.0,0.31305,0.13095,9.873,-11.2875,23.34375,-31.500002
87.21166892808684,-0.00055,0.000275,0.0,0.31095,0.13095,9.87495,-11.2875,23.34375,-31.500002
87.31343283582089,0.0004125,0.0012375,0.0,0.30795002,0.12900001,9.86295,-11.2875,23.456251,-31.2
87.41519674355494,-0.00055,0.000275,-0.0009625,0.30795002,0.13605,9.87495,-11.2875,23.456251,-31.2
87.51696065128901,0.0004125,0.000275,0.0,0.31095,0.126,9.868051,-11.212501,23.456251,-31.44375
87.61872455902306,0.0004125,0.000275,0.0011,0.30405003,0.13605,9.877951,-11.212501,23.456251,-31.44375
87.72048846675712,0.0004125,0.000275,0.0,0.31305,0.13800001,9.870001,-11.212501,23.456251,-31.44375
87.82225237449117,-0.00055,-0.000825,0.0011,0.29895002,0.13800001,9.87495,-10.9875,23.643751,-31.44375
87.92401628222524,-0.00055,-0.000825,0.0011,0.30795002,0.13095,9.861,-10.9875,23.643751,-31.44375
88.02578018995929,0.0004125,0.000275,0.0,0.30795002,0.13095,9.861,-10.8,23.5125,-31.44375
88.12754409769335,0.0004125,0.000275,0.0,0.31305,0.13095,9.87495,-10.6125,23.456251,-31.2
88.2293080054274,0.0004125,0.000275,0.0,0.30600002,0.13605,9.86295,-10.6125,23.456251,-31.2
88.33107191316147,0.0004125,0.000275,0.0,0.31500003,0.13095,9.870001,-10.6125,23.456251,-31.2
88.43283582089552,0.0004125,-0.000825,0.0,0.31500003,0.13095,9.870001,-10.6125,23.587502,-31.44375
88.53459972862957,0.0004125,0.000275,0.0,0.31095,0.13095,9.865951,-10.6125,23.587502,-31.44375
88.63636363636363,0.0004125,0.000275,0.0,0.30795002,0.12405001,9.877951,-10.743751,23.5125,-31.3875
88.7381275440977,-0.00055,0.000275,0.0,0.30600002,0.12105001,9.868051,-10.743751,23.5125,-31.3875
88.83989145183175,0.0004125,0.000275,0.0,0.31305,0.12900001,9.868051,-10.743751,23.5125,-31.3875
88.9416553595658,0.0004125,0.000275,0.0001375,0.30405003,0.13800001,9.870001,-10.556251,23.456251,-31.44375
89.04341926729985,-0.00165,0.000275,0.0001375,0.31095,0.12105001,9.868051,-10.5,23.400002,-31.500002
89.14518317503392,0.0004125,0.000275,0.0001375,0.30600002,0.12900001,9.873,-10.5,23.400002,-31.500002
89.24694708276797,0.0004125,0.000275,0.0001375,0.30795002,0.12900001,9.873,-10.5,23.400002,-31.500002
89.34871099050203,0.0004125,0.000275,0.0012375,0.30795002,0.13605,9.868051,-10.5,23.212502,-31.44375
89.45047489823608,0.0004125,0.000275,0.0001375,0.30795002,0.13305001,9.86295,-10.5,23.212502,-31.44375
89.55223880597015,0.0004125,0.000275,0.0001375,0.30405003,0.11700001,9.870001,-10.5,23.212502,-31.44375
89.6540027137042,-0.00055,-0.000825,0.0001375,0.30600002,0.126,9.865951,-10.6875,23.15625,-31.612501
89.75576662143826,-0.00055,-0.000825,0.0001375,0.30600002,0.13800001,9.870001,-10.6875,23.15625,-31.612501
89.85753052917232,-0.00055,0.000275,0.0001375,0.30600002,0.13095,9.870001,-10.8,23.15625,-31.500002
89.95929443690638,0.0004125,0.000275,-0.0009625,0.30405003,0.126,9.861,-10.8,23.15625,-31.500002
90.06105834464043,-0.00055,0.000275,-0.0009625,0.30600002,0.13095,9.877951,-10.8,23.04375,-31.687502
90.16282225237448,0.0004125,0.000275,0.0001375,0.30600002,0.126,9.868051,-10.8,23.04375,-31.687502
90.26458616010855,0.0004125,0.000275,0.0001375,0.30600002,0.13305001,9.873,-10.8,23.04375,-31.687502
90.3663500678426,0.0004125,0.000275,0.0001375,0.30600002,0.13305001,9.873,-10.8,23.04375,-31.687502
90.46811397557666,-0.00055,0.000275,0.0001375,0.30600002,0.13095,9.865951,-10.9125,22.987501,-31.612501
90.56987788331071,-0.00055,0.0012375,0.0012375,0.30105,0.13305001,9.870001,-10.9125,22.987501,-31.612501
90.67164179104478,-0.00055,0.0012375,0.0012375,0.30105,0.13305001,9.870001,-10.6875,23.1,-31.556252
90.77340569877883,-0.00055,0.000275,0.0001375,0.31095,0.13305001,9.873,-10.6875,23.1,-31.556252
90.87516960651288,-0.00055,0.000275,0.0012375,0.30600002,0.11895001,9.870001,-10.6875,23.1,-31.556252
90.97693351424694,-0.00055,0.000275,0.0001375,0.31305,0.13095,9.873,-10.9125,23.15625,-31.44375
91.078697421981,0.0004125,0.000275,0.0001375,0.30795002,0.13305001,9.873,-10.9125,23.15625,-31.44375
91.18046132971506,-0.00055,0.000275,0.0001375,0.30795002,0.13305001,9.873,-10.8,23.212502,-31.556252
91.28222523744911,-0.00055,0.000275,0.0001375,0.30795002,0.12900001,9.861,-10.8,23.212502,-31.556252
91.38398914518316,-0.00055,0.000275,-0.0009625,0.31305,0.12900001,9.870001,-10.8,23.212502,-31.687502
91.48575305291723,-0.00055,0.000275,0.0001375,0.30795002,0.13095,9.865951,-10.8,23.212502,-31.687502
91.58751696065129,0.0004125,0.000275,0.0001375,0.30600002,0.126,9.865951,-10.8,23.212502,-31.687502
91.68928086838534,0.0004125,0.000275,0.0001375,0.30600002,0.126,9.865951,-10.8,23.34375,-31.9125
91.79104477611939,0.0004125,0.000275,0.0001375,0.31500003,0.13605,9.868051,-10.8,23.34375,-31.9125
91.89280868385346,-0.00055,0.000275,0.0001375,0.31305,0.13095,9.865951,-10.5,23.456251,-31.987501
91.99457259158751,-0.00055,0.000275,0.0001375,0.30405003,0.12900001,9.87495,-10.5,23.456251,-31.987501
92.09633649932157,-0.00055,-0.000825,0.0001375,0.31305,0.12900001,9.870001,-10.5,23.456251,-31.987501
92.19810040705562,0.0004125,0.000275,0.0001375,0.30600002,0.13305001,9.868051,-10.5,23.456251,-31.987501
92.29986431478969,0.0004125,0.000275,0.0001375,0.30600002,0.13305001,9.868051,-10.5,23.7,-31.9125
92.40162822252374,0.0004125,-0.000825,0.0001375,0.30795002,0.13800001,9.87495,-10.5,23.7,-31.9125
92.5033921302578,0.0004125,0.000275,0.0001375,0.31095,0.14505,9.877951,-10.5,23.7,-31.9125
92.60515603799185,0.0004125,0.000275,0.0012375,0.30405003,0.15,9.870001,-10.25625,23.587502,-31.687502
92.70691994572591,0.0004125,-0.000825,0.0001375,0.30405003,0.13800001,9.870001,-10.25625,23.587502,-31.687502
92.80868385345997,0.0004125,-0.000825,0.0001375,0.30405003,0.13800001,9.870001,-10.387501,23.5125,-32.04375
92.91044776119402,0.0004125,0.000275,0.0001375,0.31095,0.13605,9.868051,-10.387501,23.5125,-32.04375
93.01221166892809,-0.00055,0.000275,0.0001375,0.31095,0.13800001,9.87495,-10.387501,23.5125,-32.04375
93.11397557666214,-0.00055,-0.000825,0.0001375,0.30600002,0.12900001,9.87495,-10.387501,23.587502,-31.987501
93.2157394843962,0.0004125,0.000275,0.0001375,0.30795002,0.12900001,9.865951,-10.387501,23.587502,-31.987501
93.31750339213025,-0.00055,0.000275,0.0001375,0.31305,0.13095,9.870001,-10.387501,23.587502,-31.9125
93.41926729986432,-0.00055,0.000275,0.0001375,0.30795002,0.13305001,9.873,-10.5,23.587502,-31.687502
93.52103120759837,-0.00055,0.000275,0.0001375,0.30405003,0.126,9.865951,-10.5,23.587502,-31.687502
93.62279511533242,0.0004125,0.000275,0.0001375,0.30405003,0.126,9.865951,-10.5,23.587502,-31.687502
93.72455902306648,0.0004125,0.000275,0.0001375,0.31305,0.12405001,9.86295,-10.5,23.587502,-31.687502
93.82632293080054,0.0004125,0.000275,0.0001375,0.31305,0.12405001,9.86295,-10.3125,23.587502,-31.143751
93.9280868385346,-0.00055,0.0012375,0.0001375,0.30105,0.13305001,9.868051,-10.3125,23.587502,-31.143751
94.02985074626865,-0.00055,-0.000825,-0.0009625,0.30405003,0.13095,9.873,-10.3125,23.587502,-31.143751
94.1316146540027,0.0004125,0.0012375,0.0001375,0.29895002,0.13605,9.87495,-10.6125,23.5125,-31.3875
94.23337856173677,-0.00055,0.000275,0.0001375,0.31095,0.13095,9.868051,-10.6125,23.5125,-31.3875
94.33514246947082,-0.00055,0.000275,0.0001375,0.30105,0.13605,9.868051,-10.6125,23.5125,-31.3875
94.43690637720488,0.0004125,0.000275,0.0001375,0.30795002,0.13605,9.868051,-10.8,23.456251,-31.25625
94.53867028493893,0.0004125,0.000275,0.0001375,0.30600002,0.12900001,9.868051,-10.8,23.456251,-31.25625
94.640434192673,0.0004125,-0.000825,0.0001375,0.30105,0.13605,9.870001,-11.1,23.400002,-31.500002
94.74219810040705,0.0004125,0.000275,0.0012375,0.30795002,0.13305001,9.868051,-11.1,23.400002,-31.500002
94.8439620081411,0.0004125,0.000275,0.0012375,0.31095,0.13095,9.873,-11.1,23.400002,-31.500002
94.94572591587516,0.0004125,0.000275,-0.0009625,0.30795002,0.13605,9.868051,-11.043751,23.34375,-31.25625
95.04748982360923,0.0004125,0.000275,0.0001375,0.31995,0.13800001,9.873,-11.043751,23.34375,-31.25625
95.14925373134328,0.0004125,0.000275,0.0001375,0.30795002,0.13605,9.870001,-10.856251,23.15625,-31.312502
95.25101763907733,0.0004125,0.000275,0.0001375,0.29595003,0.126,9.868051,-10.856251,23.15625,-31.312502
95.35278154681139,0.0004125,0.000275,-0.0009625,0.30795002,0.12900001,9.865951,-10.8,23.04375,-31.500002
95.45454545454545,0.0004125,0.000275,0.0001375,0.31095,0.13095,9.86295,-10.8,23.04375,-31.500002
95.5563093622795,0.0004125,0.000275,0.0001375,0.30405003,0.12105001,9.865951,-10.8,23.04375,-31.500002
95.65807327001356,0.0004125,0.000275,0.0001375,0.30405003,0.12105001,9.865951,-10.8,23.04375,-31.500002
95.75983717774763,-0.00055,0.000275,0.0001375,0.30600002,0.13095,9.870001,-10.856251,23.04375,-31.44375
95.86160108548168,-0.00055,0.000275,0.0001375,0.30795002,0.12405001,9.870001,-10.856251,23.04375,-31.44375
95.96336499321573,-0.00055,0.000275,0.0001375,0.30795002,0.12405001,9.870001,-10.6875,23.1,-31.2
96.06512890094979,-0.00055,0.000275,0.0001375,0.29895002,0.126,9.868051,-10.6875,23.1,-31.2
96.16689280868385,0.0004125,-0.000825,0.0001375,0.30600002,0.13095,9.865951,-10.6875,23.212502,-31.312502
96.26865671641791,0.0004125,0.000275,0.0001375,0.31095,0.13800001,9.861,-10.5,23.400002,-31.44375
96.37042062415196,0.00055,0.0001375,-0.0,0.30405003,0.126,9.868051,-10.556251,23.400002,-31.3875
96.47218453188601,0.00055,0.0001375,-0.0,0.30600002,0.13095,9.86295,-10.556251,23.400002,-31.3875
96.57394843962008,0.00055,0.0001375,-0.0,0.30600002,0.13095,9.86295,-10.3125,23.456251,-31.500002
96.67571234735414,0.00055,0.0001375,0.0011,0.30600002,0.126,9.865951,-10.3125,23.456251,-31.500002
96.77747625508819,-0.00055,-0.0009625,-0.0011,0.31305,0.126,9.868051,-10.25625,23.212502,-31.687502
96.87924016282224,-0.00055,-0.0009625,-0.0011,0.29895002,0.12900001,9.873,-10.25625,23.212502,-31.687502
96.98100407055631,-0.00055,0.0001375,-0.0,0.29895002,0.12900001,9.873,-10.3125,23.2875,-31.500002
97.08276797829036,0.00055,0.0001375,0.0011,0.31095,0.12900001,9.877951,-10.3125,23.2875,-31.500002
97.18453188602442,-0.00055,0.0001375,-0.0,0.31095,0.13800001,9.861,-10.44375,23.34375,-31.687502
97.28629579375847,-0.00055,0.0001375,-0.0,0.31095,0.13605,9.87495,-10.556251,23.212502,-31.687502
97.38805970149254,0.00055,0.0001375,-0.0,0.31305,0.13800001,9.868051,-10.556251,23.212502,-31.687502
97.48982360922659,0.00055,0.0001375,-0.0,0.30795002,0.12900001,9.873,-10.3125,23.1,-31.612501
97.59158751696064,0.00055,0.0001375,-0.0,0.30405003,0.12405001,9.877951,-10.200001,22.987501,-31.556252
97.6933514246947,-0.00055,-0.0009625,-0.0,0.30795002,0.13095,9.870001,-10.200001,22.987501,-31.556252
97.79511533242876,-0.00055,0.0001375,-0.0,0.30795002,0.12105001,9.865951,-10.200001,22.987501,-31.556252
97.89687924016282,-0.00055,0.0001375,-0.0,0.30795002,0.12105001,9.865951,-10.556251,22.987501,-31.556252
97.99864314789687,0.00055,0.0001375,0.0011,0.31095,0.12900001,9.873,-10.556251,22.987501,-31.556252
98.10040705563092,0.00055,0.0001375,-0.0,0.31305,0.12900001,9.873,-10.743751,23.1,-31.500002
98.20217096336499,0.00055,-0.0009625,-0.0,0.30795002,0.126,9.865951,-10.743751,23.1,-31.500002
98.30393487109905,-0.00055,-0.0009625,0.0011,0.30405003,0.12405001,9.873,-10.743751,23.1,-31.500002
98.4056987788331,-0.00055,0.0001375,-0.0011,0.30405003,0.13095,9.870001,-10.743751,23.15625,-31.612501
98.50746268656717,-0.00055,0.0001375,-0.0,0.30600002,0.126,9.868051,-10.8,23.212502,-31.612501
98.60922659430122,-0.00055,-0.0009625,-0.0011,0.30795002,0.11895001,9.868051,-10.8,23.212502,-31.612501
98.71099050203527,-0.00055,0.0001375,-0.0,0.31305,0.126,9.870001,-10.856251,23.400002,-31.743752
98.81275440976933,0.00055,0.0001375,-0.0,0.31305,0.126,9.868051,-10.856251,23.400002,-31.743752
98.9145183175034,0.00055,-0.0009625,-0.0,0.31500003,0.13305001,9.868051,-11.043751,23.643751,-31.687502
99.01628222523745,0.00055,-0.0009625,-0.0,0.30405003,0.13305001,9.86295,-11.043751,23.643751,-31.687502
99.1180461329715,-0.00055,0.0001375,-0.0,0.31095,0.13305001,9.873,-10.9875,23.587502,-31.743752
99.21981004070555,0.00055,0.0001375,-0.0,0.30405003,0.13605,9.873,-10.9875,23.587502,-31.743752
99.32157394843962,0.00055,0.0001375,-0.0,0.30600002,0.12105001,9.873,-11.34375,23.8875,-31.800001
99.42333785617367,0.00055,0.0001375,-0.0,0.30405003,0.13305001,9.87495,-11.34375,23.8875,-31.800001
99.52510176390773,-0.00055,0.0001375,-0.0,0.30405003,0.13305001,9.87495,-11.34375,23.8875,-31.800001
99.62686567164178,-0.00055,0.0001375,-0.0,0.31095,0.13095,9.880051,-11.34375,23.8875,-31.800001
99.72862957937585,0.00055,0.0001375,-0.0,0.30600002,0.12405001,9.870001,-11.043751,23.75625,-31.800001
99.8303934871099,0.00055,0.0001375,-0.0,0.30600002,0.12900001,9.870001,-11.043751,23.75625,-31.800001
99.93215739484395,-0.00055,0.0001375,-0.0,0.30600002,0.12900001,9.870001,-11.1,23.75625,-31.612501
100.03392130257801,0.00055,0.0001375,-0.0,0.31095,0.13095,9.877951,-11.1,23.75625,-31.612501
100.13568521031208,0.00055,0.0001375,0.0011,0.30795002,0.126,9.868051,-11.1,23.75625,-31.612501
100.23744911804613,-0.00055,0.0001375,-0.0,0.30795002,0.13605,9.870001,-11.043751,23.8125,-31.500002
100.33921302578018,0.00055,0.0001375,-0.0,0.31305,0.13095,9.873,-10.8,23.643751,-31.612501
100.44097693351424,-0.00055,0.0012375,-0.0011,0.31095,0.13605,9.87495,-10.743751,23.456251,-31.44375
100.5427408412483,-0.00055,0.0012375,-0.0011,0.30600002,0.12900001,9.880051,-10.743751,23.456251,-31.44375
100.64450474898236,0.00055,0.0001375,-0.0,0.31095,0.13095,9.865951,-10.743751,23.456251,-31.44375
100.74626865671641,0.00055,0.0001375,-0.0,0.30600002,0.13305001,9.865951,-10.743751,23.456251,-31.3875
100.84803256445046,0.00055,-0.0009625,-0.0,0.30600002,0.126,9.870001,-10.743751,23.456251,-31.3875
100.94979647218453,-0.00055,0.0001375,-0.0011,0.30600002,0.13605,9.87495,-10.743751,22.987501,-31.25625
101.05156037991858,0.00055,0.0001375,-0.0011,0.31095,0.12105001,9.859051,-10.743751,22.987501,-31.25625
101.15332428765264,0.00055,0.0001375,-0.0,0.29895002,0.13305001,9.87495,-10.743751,22.987501,-31.25625
101.25508819538669,0.00055,0.0001375,-0.0,0.29895002,0.13305001,9.87495,-10.44375,22.612501,-31.500002
101.35685210312076,0.00055,0.0001375,-0.0,0.30600002,0.13305001,9.868051,-10.44375,22.612501,-31.500002
101.45861601085481,0.00055,0.0001375,-0.0,0.30405003,0.13095,9.86295,-10.44375,22.612501,-31.500002
101.56037991858886,-0.00055,0.0001375,-0.0,0.30405003,0.126,9.868051,-10.556251,22.743752,-31.312502
101.66214382632293,-0.00055,0.0001375,-0.0,0.30600002,0.12405001,9.870001,-10.556251,22.743752,-31.312502
101.76390773405699,-0.00055,0.0001375,-0.0,0.30600002,0.12900001,9.873,-10.556251,22.743752,-31.312502
101.86567164179104,0.00165,0.0001375,-0.0,0.30600002,0.12900001,9.873,-10.556251,22.743752,-31.312502
101.96743554952509,-0.00055,0.0001375,-0.0,0.30600002,0.126,9.87495,-10.556251,22.800001,-31.25625
102.06919945725916,-0.00055,0.0001375,-0.0,0.30600002,0.13605,9.870001,-10.5,22.612501,-31.25625
102.17096336499321,-0.00055,0.0001375,-0.0,0.30795002,0.13095,9.873,-10.5,22.612501,-31.25625
102.27272727272727,0.00055,0.0001375,-0.0,0.30600002,0.12900001,9.87495,-10.5,22.612501,-31.25625
102.37449118046132,-0.00055,0.0001375,-0.0,0.30405003,0.13605,9.87495,-10.6875,22.612501,-31.0125
102.47625508819539,0.00055,0.0,0.0001375,0.30600002,0.141,9.870001,-10.5,22.743752,-30.956251
102.57801899592944,0.00055,0.0,0.0001375,0.30600002,0.126,9.865951,-10.5,22.743752,-30.956251
102.6797829036635,0.00055,-0.0009625,0.0001375,0.30600002,0.126,9.865951,-10.5,22.743752,-30.956251
102.78154681139755,-0.00055,0.0,0.0001375,0.30105,0.141,9.870001,-10.556251,22.85625,-30.956251
102.88331071913161,-0.00055,0.0,0.0001375,0.30600002,0.13605,9.861,-10.556251,22.85625,-30.956251
102.98507462686567,-0.00055,0.0,0.0001375,0.30600002,0.13605,9.861,-10.44375,23.1,-31.0125
103.08683853459972,-0.00055,0.0011,0.0001375,0.30795002,0.13800001,9.877951,-10.44375,23.1,-31.0125
103.18860244233377,-0.00055,0.0011,0.0001375,0.31305,0.126,9.873,-10.44375,23.1,-31.0125
103.29036635006784,-0.00055,-0.0009625,0.0001375,0.31305,0.126,9.873,-10.44375,23.1,-31.0125
103.3921302578019,0.00055,0.0,0.0011,0.31305,0.12405001,9.87495,-10.5,23.212502,-30.6
103.49389416553595,0.00055,-0.0009625,-0.0009625,0.30795002,0.13095,9.870001,-10.5,23.212502,-30.6
103.59565807327,0.00055,-0.0009625,-0.0009625,0.30795002,0.13095,9.870001,-10.5,23.2875,-31.143751
103.69742198100407,-0.00055,0.0,0.0011,0.31305,0.13305001,9.882001,-10.5,23.2875,-31.143751
103.79918588873812,-0.00055,0.0,0.0001375,0.31305,0.13305001,9.865951,-10.5,23.2875,-31.143751
103.90094979647218,-0.00055,0.0,0.0001375,0.30795002,0.13095,9.870001,-10.5,23.2875,-31.312502
104.00271370420623,-0.00055,0.0,0.0001375,0.30105,0.126,9.873,-10.5,23.2875,-31.312502
104.1044776119403,0.00055,0.0,-0.0009625,0.30795002,0.13095,9.873,-10.5,23.2875,-31.312502
104.20624151967435,-0.00055,0.0,0.0001375,0.30795002,0.13800001,9.87495,-10.556251,23.5125,-31.3875
104.3080054274084,-0.00055,0.0,0.0001375,0.30600002,0.12900001,9.877951,-10.556251,23.5125,-31.3875
104.40976933514247,0.00055,0.0,0.0011,0.30600002,0.13305001,9.87495,-10.6125,23.5125,-31.500002
104.51153324287652,0.00055,0.0,0.0001375,0.31305,0.13095,9.870001,-10.743751,23.587502,-31.612501
104.61329715061058,-0.00055,-0.0009625,0.0001375,0.31305,0.13095,9.870001,-10.743751,23.587502,-31.612501
104.71506105834463,0.00055,-0.0009625,0.0001375,0.30600002,0.13095,9.87495,-10.743751,23.5125,-31.500002
104.8168249660787,0.00055,0.0,0.0001375,0.30405003,0.13605,9.870001,-10.743751,23.5125,-31.500002
104.91858887381275,-0.00055,-0.0009625,0.0001375,0.31095,0.126,9.877951,-11.043751,23.8125,-31.44375
105.0203527815468,-0.00055,0.0,0.0001375,0.30795002,0.13605,9.870001,-11.043751,23.8125,-31.44375
105.12211668928086,-0.00055,0.0,0.0001375,0.31095,0.12900001,9.86295,-11.043751,23.8125,-31.44375
105.22388059701493,-0.00055,0.0,0.0001375,0.31305,0.13095,9.873,-11.043751,23.587502,-31.612501
105.32564450474898,-0.00055,0.0,0.0001375,0.30600002,0.13305001,9.873,-11.043751,23.587502,-31.612501
105.42740841248303,-0.00055,0.0,0.0001375,0.30600002,0.13305001,9.873,-11.212501,23.5125,-31.143751
105.52917232021709,0.0004125,0.0,0.0001375,0.30405003,0.12900001,9.868051,-11.15625,23.5125,-31.143751
105.63093622795115,0.0004125,0.0,0.0001375,0.31095,0.14295001,9.868051,-11.400001,23.587502,-31.2
105.7327001356852,-0.00055,0.0,0.0001375,0.30600002,0.141,9.86295,-11.400001,23.587502,-31.2
105.83446404341926,-0.00055,0.0,0.0001375,0.30405003,0.12900001,9.865951,-11.2875,23.456251,-31.312502
105.93622795115331,0.0004125,0.0,0.0001375,0.30795002,0.13605,9.873,-11.2875,23.456251,-31.312502
106.03799185888738,0.0004125,0.0,0.0001375,0.30795002,0.13605,9.873,-11.2875,23.456251,-31.312502
106.13975576662143,0.0004125,0.0,0.0001375,0.30600002,0.13605,9.865951,-11.2875,23.456251,-31.312502
106.24151967435549,-0.00055,0.0,0.0001375,0.30795002,0.13095,9.870001,-11.400001,23.587502,-31.2
106.34328358208954,0.0004125,0.0,0.0001375,0.30405003,0.14505,9.868051,-11.212501,23.456251,-31.312502
106.44504748982361,-0.00055,0.0011,-0.0009625,0.30600002,0.13800001,9.870001,-11.043751,23.400002,-31.143751
106.54681139755766,0.00055,0.0,0.0001375,0.30600002,0.13605,9.865951,-11.043751,23.400002,-31.143751
106.64857530529171,0.00055,0.0,0.0001375,0.30405003,0.13305001,9.87495,-11.15625,23.5125,-31.143751
106.75033921302577,-0.00055,0.0,0.0001375,0.31095,0.13305001,9.873,-11.15625,23.5125,-31.143751
106.85210312075984,-0.00055,0.0,0.0001375,0.31095,0.13305001,9.873,-11.15625,23.5125,-31.2
106.95386702849389,-0.00165,0.0,-0.0009625,0.30795002,0.141,9.86295,-11.15625,23.5125,-31.2
107.05563093622794,-0.00055,0.0,0.0001375,0.31305,0.13305001,9.870001,-11.043751,23.400002,-31.2
107.15739484396201,-0.00055,0.0,0.0001375,0.30600002,0.13800001,9.86295,-11.043751,23.400002,-31.2
107.25915875169606,0.00055,0.0,0.0001375,0.31500003,0.13305001,9.87495,-10.9875,23.15625,-31.087502
107.36092265943012,0.00055,0.0,0.0001375,0.31305,0.13605,9.873,-10.9875,23.15625,-31.087502
107.46268656716417,-0.00055,0.0,0.0001375,0.31305,0.13605,9.873,-10.9875,23.2875,-30.956251
107.56445047489824,-0.00055,0.0,0.0001375,0.30405003,0.13605,9.86295,-10.9875,23.2875,-30.956251
107.66621438263229,-0.00055,0.0,0.0001375,0.30105,0.13605,9.870001,-10.9875,23.2875,-30.956251
107.76797829036634,-0.00055,0.0,0.0001375,0.31095,0.126,9.868051,-10.9875,23.2875,-30.956251
107.8697421981004,-0.00055,0.0,-0.0009625,0.31095,0.126,9.868051,-11.043751,23.15625,-31.087502
107.97150610583446,0.00055,0.0,0.0001375,0.30105,0.13095,9.868051,-11.043751,23.15625,-31.087502
108.07327001356852,0.00055,0.0,0.0001375,0.30105,0.13095,9.868051,-11.212501,23.212502,-31.087502
108.17503392130257,0.00055,0.0,0.0001375,0.30795002,0.12900001,9.87495,-11.212501,23.212502,-31.087502
108.27679782903662,0.00055,-0.0009625,-0.0009625,0.30795002,0.13605,9.868051,-11.15625,23.15625,-31.44375
108.37856173677069,0.00055,-0.0009625,-0.0009625,0.30795002,0.13095,9.870001,-11.15625,23.15625,-31.44375
108.48032564450475,-0.00055,0.0,0.0001375,0.30600002,0.13095,9.870001,-10.9125,23.2875,-31.44375
108.5820895522388,0.00055,0.0,0.0001375,0.31095,0.13605,9.868051,-10.9125,23.2875,-31.44375
108.68385345997285,0.00055,-0.0009625,0.0001375,0.30600002,0.12900001,9.873,-10.5,23.400002,-31.612501
108.78561736770692,0.0004125,-0.0009625,0.0001375,0.30405003,0.13095,9.868051,-10.5,23.400002,-31.612501
108.88738127544097,0.0004125,-0.0009625,0.0001375,0.30600002,0.13305001,9.877951,-10.5,23.400002,-31.612501
108.98914518317503,0.0004125,0.0,0.0001375,0.30600002,0.13305001,9.877951,-10.5,23.400002,-31.612501
109.09090909090908,0.0004125,-0.0009625,0.0001375,0.30405003,0.12900001,9.870001,-10.743751,23.456251,-31.743752
109.19267299864315,0.0004125,0.0,0.0001375,0.31095,0.12900001,9.870001,-10.743751,23.456251,-31.743752
109.2944369063772,0.0004125,0.0,0.0001375,0.30795002,0.11895001,9.877951,-10.743751,23.456251,-31.743752
109.39620081411125,-0.00055,0.0001375,0.0,0.30795002,0.13605,9.868051,-10.743751,23.5125,-31.687502
109.4979647218453,-0.00055,0.0001375,-0.0009625,0.31095,0.13800001,9.861,-10.743751,23.5125,-31.687502
109.59972862957937,-0.00055,0.0001375,-0.0009625,0.31095,0.13800001,9.861,-10.6875,23.5125,-31.612501
109.70149253731343,-0.00055,0.0001375,0.0,0.30405003,0.13095,9.870001,-10.6875,23.5125,-31.612501
109.80325644504748,-0.00055,0.0001375,0.0,0.30600002,0.12405001,9.86295,-10.44375,23.456251,-31.44375
109.90502035278153,0.00055,0.0001375,0.0,0.31095,0.126,9.87495,-10.3125,23.5125,-31.500002
110.0067842605156,-0.00055,0.0001375,0.0,0.30405003,0.13095,9.868051,-10.3125,23.5125,-31.500002
110.10854816824965,0.00055,-0.0009625,0.0,0.30405003,0.12405001,9.86295,-10.5,23.643751,-31.3875
110.21031207598371,-0.00055,0.0001375,-0.0009625,0.30600002,0.12405001,9.868051,-10.5,23.643751,-31.3875
110.31207598371778,0.00055,0.0001375,0.0,0.30795002,0.126,9.870001,-10.8,23.643751,-31.44375
110.41383989145183,0.00055,0.0001375,0.0,0.31095,0.12900001,9.868051,-10.8,23.643751,-31.44375
110.51560379918588,-0.00165,-0.0009625,0.0,0.31095,0.12900001,9.868051,-10.8,23.643751,-31.44375
110.61736770691994,0.00055,0.0001375,0.0,0.30405003,0.13605,9.87495,-10.743751,23.643751,-31.2
110.719131614654,-0.00055,0.0001375,0.0,0.30795002,0.13605,9.868051,-10.743751,23.643751,-31.2
110.82089552238806,-0.00055,0.0012375,0.0,0.29895002,0.12900001,9.873,-10.6875,23.643751,-31.44375
110.92265943012211,0.00055,-0.0009625,-0.0009625,0.30105,0.13095,9.865951,-10.6875,23.643751,-31.44375
111.02442333785616,0.00055,0.0001375,0.0011,0.30795002,0.13605,9.86295,-10.6875,23.643751,-31.44375
111.12618724559023,0.00055,0.0001375,0.0011,0.30795002,0.13095,9.86295,-10.6875,23.643751,-31.44375
111.22795115332428,-0.00055,0.0001375,0.0,0.30795002,0.13305001,9.873,-10.743751,23.7,-31.9125
111.32971506105834,-0.00055,0.0001375,0.0,0.31305,0.126,9.870001,-10.856251,23.8875,-32.04375
111.43147896879239,0.00055,0.0001375,0.0,0.30405003,0.13605,9.861,-10.856251,23.8875,-32.04375
111.53324287652646,0.00055,0.0001375,0.0,0.30600002,0.13605,9.873,-10.856251,23.8875,-32.04375
111.63500678426051,0.00055,0.0001375,-0.0009625,0.31095,0.13095,9.873,-11.043751,23.8125,-32.2125
111.73677069199456,0.00055,0.0001375,-0.0009625,0.30405003,0.126,9.87495,-11.043751,23.8125,-32.2125
111.83853459972862,0.00055,0.0001375,0.0,0.30405003,0.126,9.87495,-11.212501,23.5125,-31.987501
111.94029850746269,0.00055,0.0001375,0.0,0.30600002,0.126,9.87495,-11.212501,23.5125,-31.987501
112.04206241519674,0.00055,0.0001375,0.0,0.30600002,0.12900001,9.870001,-11.212501,23.5125,-31.987501
112.14382632293079,0.00055,0.0001375,0.0,0.30600002,0.126,9.873,-11.212501,23.5125,-31.987501
112.24559023066485,0.00055,0.0001375,0.0,0.30405003,0.13605,9.877951,-11.2875,23.5125,-31.987501
112.34735413839891,-0.00055,0.0001375,0.0,0.30105,0.13095,9.873,-11.2875,23.5125,-31.987501
112.44911804613297,-0.00055,0.0001375,0.0,0.30105,0.13095,9.873,-11.34375,23.400002,-31.687502
112.55088195386702,-0.00055,0.0001375,0.0,0.30600002,0.13305001,9.877951,-11.34375,23.400002,-31.687502
112.65264586160107,-0.00055,0.0001375,0.0,0.30795002,0.13305001,9.870001,-11.34375,23.212502,-31.800001
112.75440976933514,0.00055,0.0001375,0.0,0.30795002,0.13305001,9.87495,-11.512501,23.34375,-31.687502
112.8561736770692,0.00055,0.0001375,0.0011,0.30795002,0.141,9.861,-11.512501,23.400002,-31.25625
112.95793758480325,0.00055,-0.0009625,0.0,0.30795002,0.12900001,9.87495,-11.45625,23.2875,-30.843752
113.05970149253731,0.00055,0.0001375,0.0,0.30405003,0.141,9.87495,-11.45625,23.2875,-30.843752
113.16146540027137,0.00055,0.0001375,0.0,0.30405003,0.141,9.87495,-11.2875,23.5125,-30.900002
113.26322930800542,0.00055,0.0001375,0.0,0.31095,0.13605,9.87495,-11.2875,23.5125,-30.900002
113.36499321573947,-0.00055,0.0001375,0.0,0.30105,0.13305001,9.865951,-11.2875,23.5125,-30.900002
113.46675712347354,-0.00055,0.0001375,0.0,0.30795002,0.12900001,9.87495,-11.2875,23.587502,-30.656252
113.5685210312076,-0.00055,0.0001375,-0.0009625,0.30795002,0.13800001,9.877951,-11.2875,23.587502,-30.656252
113.67028493894165,0.00055,-0.0009625,0.0,0.30795002,0.13800001,9.868051,-11.2875,23.587502,-30.656252
113.7720488466757,0.00055,0.0001375,0.0,0.31095,0.126,9.868051,-11.212501,23.5125,-30.900002
113.87381275440977,-0.00055,0.0001375,0.0,0.31800002,0.13305001,9.877951,-11.212501,23.5125,-30.900002
113.97557666214382,0.00055,-0.0009625,-0.0009625,0.30405003,0.13305001,9.870001,-10.9125,23.8125,-31.087502
114.07734056987788,0.00055,-0.0009625,0.0,0.31095,0.13605,9.86295,-10.9125,23.8125,-31.087502
114.17910447761193,-0.00055,0.0001375,-0.0009625,0.31095,0.126,9.865951,-10.6875,23.75625,-30.843752
114.280868385346,-0.00055,0.0001375,0.0,0.30600002,0.126,9.873,-10.6875,23.75625,-30.843752
114.38263229308005,0.00055,0.0001375,-0.0009625,0.30600002,0.126,9.868051,-10.6875,23.75625,-30.843752
114.4843962008141,-0.00055,0.0001375,0.0,0.30600002,0.12405001,9.873,-10.5,23.75625,-30.900002
114.58616010854816,0.00055,-0.0009625,0.0,0.30600002,0.13095,9.86295,-10.5,23.75625,-30.900002
114.68792401628222,-0.00055,0.0001375,0.0,0.30600002,0.12900001,9.870001,-10.5,23.75625,-30.900002
114.78968792401628,-0.00055,0.0001375,0.0,0.31800002,0.13095,9.87495,-10.5,23.8875,-31.0125
114.89145183175033,-0.00165,0.0001375,0.0,0.30600002,0.13095,9.859051,-10.44375,23.5125,-31.25625
114.99321573948438,-0.00165,0.0001375,0.0,0.30600002,0.126,9.87495,-10.44375,23.5125,-31.25625
115.09497964721845,-0.00055,-0.0009625,0.0,0.30600002,0.126,9.87495,-10.44375,23.5125,-31.25625
115.1967435549525,0.00055,0.0001375,0.0,0.30795002,0.13605,9.865951,-10.3125,23.456251,-31.3875
115.29850746268656,-0.00055,0.0012375,0.0,0.30405003,0.126,9.868051,-10.3125,23.456251,-31.3875
115.40027137042061,0.00055,0.0001375,0.0,0.30405003,0.12900001,9.873,-10.3125,23.212502,-31.500002
115.50203527815468,0.00055,0.0001375,0.0,0.30600002,0.12900001,9.87495,-10.3125,23.212502,-31.500002
115.60379918588873,-0.00055,0.0001375,-0.0009625,0.30600002,0.12900001,9.87495,-10.3125,23.212502,-31.500002
115.70556309362279,-0.00055,-0.0009625,0.0,0.30795002,0.12900001,9.870001,-10.3125,23.34375,-31.3875
115.80732700135685,-0.0015125,0.0001375,-0.0009625,0.31095,0.12405001,9.86295,-10.3125,23.34375,-31.3875
115.9090909090909,-0.00055,-0.0009625,0.0001375,0.30600002,0.126,9.870001,-10.6875,23.212502,-31.143751
116.01085481682496,-0.00055,0.0012375,0.0001375,0.31500003,0.13095,9.87495,-10.6875,23.212502,-31.143751
116.11261872455901,0.00055,0.0001375,-0.0009625,0.30405003,0.13095,9.868051,-10.6875,23.212502,-31.143751
116.21438263229308,0.00055,-0.0009625,0.0001375,0.30795002,0.13095,9.868051,-10.8,22.987501,-31.143751
116.31614654002713,0.00165,0.0001375,0.0001375,0.31095,0.12900001,9.868051,-10.8,22.987501,-31.143751
116.41791044776119,-0.00055,0.0001375,0.0001375,0.31095,0.13095,9.880051,-10.8,22.987501,-31.143751
116.51967435549524,0.00055,-0.0020625,0.0001375,0.30795002,0.13305001,9.865951,-11.043751,22.743752,-31.0125
116.62143826322931,0.00055,-0.0020625,0.0001375,0.30600002,0.12105001,9.87495,-11.043751,22.743752,-31.0125
116.72320217096336,0.00165,-0.0009625,0.0001375,0.30600002,0.12105001,9.87495,-11.043751,22.743752,-31.0125
116.82496607869741,-0.00055,0.0001375,0.0011,0.30600002,0.126,9.870001,-11.400001,22.6875,-30.712502
116.92672998643147,-0.00055,0.0001375,0.0001375,0.30600002,0.13605,9.87495,-11.400001,22.6875,-30.712502
117.02849389416554,-0.00055,0.0001375,0.0001375,0.30600002,0.13605,9.87495,-11.45625,22.85625,-30.487501
117.13025780189959,0.00055,0.0001375,-0.0009625,0.30795002,0.13095,9.873,-11.45625,22.85625,-30.487501
117.23202170963364,-0.00055,0.0001375,0.0001375,0.30405003,0.13095,9.870001,-11.45625,22.85625,-30.487501
117.3337856173677,0.00165,0.0001375,0.0001375,0.30795002,0.14295001,9.87495,-11.45625,22.85625,-30.487501
117.43554952510176,-0.00055,0.0001375,0.0001375,0.31095,0.141,9.873,-11.64375,22.556252,-30.4125
117.53731343283582,-0.00055,0.0001375,0.0001375,0.30405003,0.14505,9.873,-11.64375,22.556252,-30.4125
117.63907734056987,-0.00055,0.0001375,0.0001375,0.31095,0.13305001,9.873,-11.75625,22.612501,-30.35625
117.74084124830392,0.00055,-0.0009625,0.0001375,0.30600002,0.14505,9.870001,-11.75625,22.612501,-30.35625
117.84260515603799,0.00055,0.0012375,-0.0009625,0.30105,0.13305001,9.865951,-11.887501,22.5,-30.4125
117.94436906377204,0.00055,0.0001375,0.0012375,0.31800002,0.141,9.873,-11.887501,22.5,-30.4125
118.0461329715061,0.00055,0.0001375,0.0012375,0.31800002,0.141,9.873,-11.75625,22.5,-30.6
118.14789687924015,-0.00055,0.0001375,-0.0009625,0.30600002,0.126,9.870001,-11.75625,22.5,-30.6
118.24966078697422,-0.00055,0.0001375,0.0012375,0.30405003,0.12900001,9.870001,-11.75625,22.5,-30.6
118.35142469470827,-0.00055,0.0001375,0.0012375,0.30405003,0.12900001,9.870001,-11.45625,22.6875,-30.7875
118.45318860244232,0.00055,-0.0009625,0.0001375,0.29595003,0.13800001,9.870001,-11.45625,22.6875,-30.7875
118.55495251017638,0.00055,-0.0009625,0.0001375,0.31095,0.12900001,9.877951,-11.45625,22.6875,-30.7875
118.65671641791045,0.00055,0.0001375,0.0001375,0.30600002,0.13095,9.868051,-11.15625,22.6875,-30.956251
118.7584803256445,0.00055,0.0001375,0.0001375,0.30600002,0.13800001,9.868051,-11.15625,22.6875,-30.956251
118.86024423337855,0.00055,0.0001375,0.0001375,0.31305,0.13095,9.873,-10.9125,22.743752,-31.087502
118.96200814111262,-0.00055,-0.0009625,0.0001375,0.30795002,0.13095,9.868051,-10.9125,22.743752,-31.087502
119.06377204884667,0.00055,0.0012375,-0.0009625,0.30795002,0.13800001,9.873,-10.9125,22.743752,-31.087502
119.16553595658073,-0.00055,0.0001375,0.0001375,0.31095,0.13605,9.870001,-10.9125,22.743752,-31.087502
119.26729986431478,-0.00055,0.0001375,0.0001375,0.31095,0.13605,9.870001,-10.9125,22.6875,-31.25625
119.36906377204885,0.00055,0.0001375,0.0001375,0.30105,0.13305001,9.87495,-10.9125,22.6875,-31.25625
119.4708276797829,-0.00055,-0.0009625,0.0012375,0.31095,0.13605,9.873,-10.8,23.1,-31.556252
119.57259158751695,0.00165,-0.0009625,0.0001375,0.30795002,0.13605,9.868051,-10.8,23.1,-31.556252
119.674355495251,0.00165,-0.0009625,0.0001375,0.31095,0.13800001,9.877951,-10.8,23.1,-31.556252
119.77611940298507,-0.00055,0.0001375,0.0001375,0.30795002,0.13800001,9.868051,-10.9875,23.400002,-31.687502
119.87788331071913,0.00055,0.0001375,0.0001375,0.30405003,0.13800001,9.870001,-10.743751,23.34375,-31.800001
119.97964721845318,0.00055,0.0001375,-0.0009625,0.30600002,0.13305001,9.870001,-10.743751,23.34375,-31.800001
120.08141112618723,0.00055,0.0001375,0.0001375,0.30405003,0.13800001,9.870001,-11.1,23.34375,-31.687502
120.1831750339213,-0.00055,-0.0009625,-0.0009625,0.30405003,0.13095,9.870001,-11.2875,23.400002,-31.85625
120.28493894165535,-0.00055,0.0001375,0.0012375,0.30105,0.13095,9.877951,-11.2875,23.400002,-31.85625
120.38670284938941,0.00055,0.0001375,0.0001375,0.30600002,0.13305001,9.873,-11.34375,23.34375,-31.987501
120.48846675712346,0.00055,-0.0009625,0.0012375,0.31095,0.12405001,9.87495,-11.34375,23.34375,-31.987501
120.59023066485753,0.00055,-0.0009625,0.0001375,0.30600002,0.13800001,9.873,-11.1,23.2875,-32.15625
120.69199457259158,0.00055,0.0001375,0.0001375,0.31095,0.12900001,9.870001,-11.1,23.2875,-32.15625
120.79375848032564,0.00055,-0.0009625,0.0001375,0.29895002,0.13095,9.865951,-10.9875,23.1,-32.15625
120.89552238805969,0.00055,-0.0009625,0.0001375,0.30405003,0.126,9.865951,-10.9875,23.1,-32.15625
120.99728629579376,-0.00055,0.0001375,-0.0009625,0.30795002,0.13800001,9.870001,-10.8,22.987501,-31.85625
121.09905020352781,-0.00055,0.0001375,0.0001375,0.31095,0.12900001,9.859051,-10.856251,22.987501,-31.987501
121.20081411126186,-0.00055,0.0001375,0.0001375,0.30405003,0.13605,9.865951,-10.856251,22.987501,-31.987501
121.30257801899592,-0.00055,0.0001375,0.0001375,0.30600002,0.13095,9.8869505,-10.856251,22.987501,-31.987501
121.40434192672998,-0.00055,0.0001375,0.0012375,0.30600002,0.13095,9.8869505,-10.856251,22.9125,-31.85625
121.50610583446404,-0.00055,0.0001375,0.0001375,0.31095,0.13800001,9.880051,-10.856251,22.9125,-31.85625
121.60786974219809,-0.00055,0.0001375,0.0001375,0.30405003,0.13305001,9.873,-10.856251,22.9125,-31.85625
121.70963364993216,0.00055,0.0001375,0.0012375,0.30405003,0.126,9.861,-11.043751,23.15625,-31.687502
