timestamp,gyro_x,gyro_y,gyro_z,acc_x,acc_y,acc_z,mag_x,mag_y,mag_z
0.0,-0.1084875,0.19085,0.046475,10.149,-0.60300004,1.7350501,-29.1,21.35625,-32.100002
0.05390835579514825,0.140525,0.2525875,0.17847499,10.149,-0.60300004,1.7350501,-29.1,21.35625,-32.100002
0.1078167115902965,0.140525,0.2525875,0.17847499,10.21395,-0.78795004,1.9879501,-29.1,21.35625,-32.100002
0.16172506738544476,0.1863125,0.12375,0.194425,9.912001,-1.5130501,2.568,-29.1,21.35625,-32.100002
0.215633423180593,-0.007425,-0.1731125,-0.09185,9.912001,-1.5130501,2.568,-26.7,19.143751,-32.456253
0.2695417789757413,-0.007425,-0.1731125,-0.09185,9.903001,-1.6570501,2.2399502,-26.7,19.143751,-32.456253
0.3234501347708895,-0.0851125,-0.39875,-0.232375,10.078051,-0.63405,1.7629501,-26.7,19.143751,-32.456253
0.37735849056603776,-0.0191125,-1.0957375,0.1827375,10.078051,-0.63405,1.7629501,-26.7,19.143751,-32.456253
0.431266846361186,-0.0191125,-1.0957375,0.1827375,10.078051,-0.63405,1.7629501,-27.300001,18.900002,-31.500002
0.48517520215633425,0.023375,-1.5789125,-0.0727375,10.42695,-0.10005,-1.3800001,-27.300001,18.900002,-31.500002
0.5390835579514826,0.057475,-1.7928625,0.2135375,10.42695,-0.10005,-1.3800001,-27.300001,18.900002,-31.500002
0.5929919137466307,0.057475,-1.7928625,0.2135375,9.361051,-0.99405,-2.56095,-27.300001,18.900002,-31.500002
0.646900269541779,0.4129125,-2.2132,0.211475,9.361051,-0.99405,-2.56095,-28.9125,18.712502,-28.743752
0.7008086253369272,0.3746875,-1.8418125,-0.05775,8.611951,-2.5459502,-4.96605,-28.9125,18.712502,-28.743752
0.7547169811320755,0.141625,-1.2362624,0.7382375,8.611951,-2.5459502,-4.96605,-28.9125,18.712502,-28.743752
0.8086253369272237,0.141625,-1.2362624,0.7382375,8.611951,-2.5459502,-4.96605,-30.487501,18.6,-24.35625
0.862533692722372,-1.0514625,-1.4576375,0.1315875,7.8430505,4.3560004,-4.66905,-30.487501,18.6,-24.35625
0.9164420485175203,-0.73535,-2.204675,0.1093125,7.8430505,4.3560004,-4.66905,-30.487501,18.6,-24.35625
0.9703504043126685,-0.73535,-2.204675,0.1093125,6.6859503,0.44505003,-5.7390003,-30.487501,18.6,-24.35625
1.0242587601078168,-0.7832,-2.8006,-0.1194875,3.3949502,1.0510501,-8.26395,-30.956251,18.112501,-17.2875
1.078167115902965,-0.7321875,-3.303025,0.259325,3.3949502,1.0510501,-8.26395,-30.956251,18.112501,-17.2875
1.1320754716981132,-0.7321875,-3.303025,0.259325,4.9399505,0.39000002,-6.9610505,-30.956251,18.112501,-17.2875
1.1859838274932615,0.4714875,-4.5012,0.07205,-1.7170501,-0.58905005,-8.42595,-30.956251,18.112501,-17.2875
1.2398921832884098,0.4629625,-4.2851872,0.33385,-1.7170501,-0.58905005,-8.42595,-27.7875,17.7,-8.212501
1.293800539083558,0.4629625,-4.2851872,0.33385,-4.16505,-0.71805006,-7.4130006,-27.7875,17.7,-8.212501
1.3477088948787064,0.203225,-4.396975,0.3944875,-6.1330504,-0.38805002,-2.9269502,-27.7875,17.7,-8.212501
1.4016172506738545,0.0969375,-4.658775,0.0869,-6.1330504,-0.38805002,-2.9269502,-20.7,17.456251,-0.84375006
1.4555256064690028,0.0969375,-4.658775,0.0869,-7.22805,-0.36600003,-2.0269501,-20.7,17.456251,-0.84375006
1.509433962264151,0.4970625,-4.905725,-0.7569375,-10.135051,-1.9300501,2.6899502,-20.7,17.456251,-0.84375006
1.5633423180592994,0.2745875,-3.6744125,-1.0921625,-10.135051,-1.9300501,2.6899502,-20.7,17.456251,-0.84375006
1.6172506738544474,-0.2894375,-3.14435,-0.0215875,-8.34195,-2.73,5.67705,-12.6,18.487501,3.4125001
1.6711590296495957,-0.529925,-3.205125,-0.41745,-8.34195,-2.73,5.67705,-12.6,18.487501,3.4125001
1.725067385444744,-0.529925,-3.205125,-0.41745,-7.8859506,-2.05005,6.6319504,-12.6,18.487501,3.4125001
1.7789757412398923,-0.251075,-1.4491125,-0.0451,-5.24205,-1.8769501,6.97695,-5.0437503,19.800001,6.0
1.8328840970350406,0.190575,-0.373175,-0.0534875,-5.24205,-1.8769501,6.97695,-5.0437503,19.800001,6.0
1.8867924528301887,0.190575,-0.373175,-0.0534875,-4.0069504,-1.4419501,7.5520506,-5.0437503,19.800001,6.0
1.940700808625337,-0.1808125,-3.4018874,0.6743,-0.53595,-2.196,9.94995,-5.0437503,19.800001,6.0
1.9946091644204853,0.340725,-6.632725,2.6956875,-0.53595,-2.196,9.94995,1.2,20.456251,4.6875
2.0485175202156336,0.340725,-6.632725,2.6956875,2.65995,-3.8460002,7.9879503,1.2,20.456251,4.6875
2.102425876010782,0.1747625,-4.974612,1.2472625,2.65995,-3.8460002,7.9879503,1.2,20.456251,4.6875
2.15633423180593,0.1747625,-4.974612,1.2472625,3.6210003,-3.5800502,7.3339505,1.2,20.456251,4.6875
2.2102425876010785,0.7929625,-2.0502625,0.809875,6.52605,-2.69895,7.5469503,5.7562504,20.5125,0.35625002
2.2641509433962264,1.2133,-3.5838,0.5597625,6.52605,-2.69895,7.5469503,5.7562504,20.5125,0.35625002
2.3180592991913747,1.2133,-3.5838,0.5597625,6.8710504,-2.5069501,13.306951,5.7562504,20.5125,0.35625002
2.371967654986523,-0.2255,-5.49615,-0.285175,8.619,-4.1340003,0.47205,5.7562504,20.5125,0.35625002
2.4258760107816713,-0.59894997,-5.6376376,-0.8427375,8.619,-4.1340003,0.47205,5.64375,19.987501,-1.9125
2.4797843665768196,-0.59894997,-5.6376376,-0.8427375,10.318951,1.2229501,-0.55905,5.64375,19.987501,-1.9125
2.533692722371968,-1.639825,-3.052775,0.499125,9.996,0.17595,-4.16295,5.64375,19.987501,-1.9125
2.587601078167116,-2.5166626,-3.1304624,-0.318175,9.996,0.17595,-4.16295,5.64375,19.987501,-1.9125
2.6415094339622645,-2.5166626,-3.1304624,-0.318175,9.996,0.17595,-4.16295,4.3875003,19.2,-2.9437501
2.6954177897574128,-1.1204875,-3.0570376,-0.463925,5.77395,1.8550501,-6.38805,4.3875003,19.2,-2.9437501
2.7493261455525606,0.7046875,-4.620275,0.024475,5.77395,1.8550501,-6.38805,4.3875003,19.2,-2.9437501
2.803234501347709,0.7046875,-4.620275,0.024475,5.77395,1.8550501,-6.38805,4.6875,19.3125,-2.8875
2.857142857142857,2.075425,-7.892775,0.1618375,-6.7939506,-2.60805,-3.14805,4.6875,19.3125,-2.8875
2.9110512129380055,2.2105875,-8.265263,0.0394625,-6.7939506,-2.60805,-3.14805,4.6875,19.3125,-2.8875
2.964959568733154,2.2105875,-8.265263,0.0394625,-7.9219503,-2.9340003,-2.2350001,4.6875,19.3125,-2.8875
3.018867924528302,1.5741,-6.9509,-0.5501375,-10.22595,-2.9550002,1.7850001,5.0437503,20.8125,-5.34375
3.0727762803234504,0.4365625,-4.7075872,-0.0669625,-10.22595,-2.9550002,1.7850001,5.0437503,20.8125,-5.34375
3.1266846361185987,0.4365625,-4.7075872,-0.0669625,-9.205951,-2.74005,2.0700002,5.0437503,20.8125,-5.34375
3.180592991913747,-1.197075,-2.9484124,-0.48839998,-9.807,-3.8149502,7.7800503,5.0437503,20.8125,-5.34375
3.234501347708895,-2.308075,-1.5554,-0.5490375,-9.807,-3.8149502,7.7800503,4.0125003,21.4125,-5.2125
3.288409703504043,-2.308075,-1.5554,-0.5490375,-6.0610504,-5.1390004,7.4280005,4.0125003,21.4125,-5.2125
3.3423180592991915,-0.1626625,-0.36987498,-0.008525,-2.6920502,-4.5409503,7.3099504,4.0125003,21.4125,-5.2125
3.3962264150943398,-0.789525,-1.303225,0.2011625,-2.6920502,-4.5409503,7.3099504,3.7875001,21.712502,-4.4437504
3.450134770889488,-0.9491625,-3.524125,0.77165,-2.0710502,-3.31695,9.37695,3.7875001,21.712502,-4.4437504
3.5040431266846364,-0.1626625,-4.505325,1.45695,-2.0710502,-3.31695,9.37695,3.7875001,21.712502,-4.4437504
3.5579514824797847,-0.1626625,-4.505325,1.45695,-1.3579501,-4.263,9.23295,3.7875001,21.712502,-4.4437504
3.611859838274933,0.682275,-4.4851127,0.7981875,-1.3579501,-4.263,9.23295,4.14375,22.0125,-3.7875001
3.6657681940700813,0.682275,-4.4851127,0.7981875,-0.51195,-4.78695,8.812051,4.14375,22.0125,-3.7875001
3.719676549865229,0.90475,-3.2751124,0.256575,3.8190002,-4.9669504,7.8750005,4.14375,22.0125,-3.7875001
3.7735849056603774,0.518375,-2.7377625,-0.4214375,3.8190002,-4.9669504,7.8750005,4.14375,22.0125,-3.7875001
3.8274932614555257,0.518375,-2.7377625,-0.4214375,3.8190002,-4.9669504,7.8750005,4.6875,22.800001,-3.24375
3.881401617250674,0.341825,-2.8941,-0.2415875,8.871,-3.5040002,6.1650004,4.6875,22.800001,-3.24375
3.9353099730458223,0.5407875,-3.7560875,-0.21065,8.871,-3.5040002,6.1650004,4.6875,22.800001,-3.24375
3.9892183288409706,0.5407875,-3.7560875,-0.21065,8.724,-3.3600001,6.2520003,4.6875,22.800001,-3.24375
4.0431266846361185,0.6323625,-3.6157,0.0884125,8.578051,-3.5779502,0.42900002,6.24375,23.643751,-5.15625
4.097035040431267,0.0246125,-3.0687249,0.1436875,8.578051,-3.5779502,0.42900002,6.24375,23.643751,-5.15625
4.150943396226415,0.0246125,-3.0687249,0.1436875,8.02995,-2.5189502,0.91095006,6.24375,23.643751,-5.15625
4.204851752021564,-0.2850375,-2.3832874,0.1214125,8.01105,-3.3289502,-2.59905,6.8437505,24.956251,-8.94375
4.258760107816712,-0.5075125,-1.725625,0.3491125,8.01105,-3.3289502,-2.59905,6.8437505,24.956251,-8.94375
4.31266846361186,-0.5075125,-1.725625,0.3491125,7.7400002,-3.5779502,-3.6700501,6.8437505,24.956251,-8.94375
4.366576819407008,-0.4712125,-1.14565,0.12773749,7.9030504,-4.04295,-5.16195,6.8437505,24.956251,-8.94375
4.420485175202157,-0.49568748,-1.3149124,0.0713625,7.9030504,-4.04295,-5.16195,1.9125,25.3875,-13.856251
4.474393530997305,-0.49568748,-1.3149124,0.0713625,7.7539506,-3.8940003,-5.4570003,1.9125,25.3875,-13.856251
4.528301886792453,-0.56595,-1.463825,-0.0499125,6.25995,-3.52305,-7.6000504,1.9125,25.3875,-13.856251
4.5822102425876015,-0.5286875,-1.4564,-0.2968625,6.25995,-3.52305,-7.6000504,1.9125,25.3875,-13.856251
4.636118598382749,-0.5286875,-1.4564,-0.2968625,6.25995,-3.52305,-7.6000504,-7.0875,23.643751,-13.14375
4.690026954177898,-0.5489,-1.4777125,-0.6491375,4.938,-2.32305,-8.55105,-7.0875,23.643751,-13.14375
4.743935309973046,-0.640475,-1.5107125,-0.66715,4.938,-2.32305,-8.55105,-7.0875,23.643751,-13.14375
4.797843665768195,-0.640475,-1.5107125,-0.66715,4.7410502,-1.9279501,-8.22,-7.0875,23.643751,-13.14375
4.8517520215633425,-0.56815,-1.499025,-0.74387497,2.2339501,0.08505,-8.51505,-15.056251,20.400002,-10.25625
4.905660377358491,-0.573375,-1.57135,-0.6969875,2.2339501,0.08505,-8.51505,-15.056251,20.400002,-10.25625
4.959568733153639,-0.573375,-1.57135,-0.6969875,1.6969501,-0.28695002,-8.635051,-15.056251,20.400002,-10.25625
5.013477088948787,-0.7255875,-1.3563,-0.6661875,0.09,1.10595,-8.125051,-15.056251,20.400002,-10.25625
5.067385444743936,-0.639375,-1.1818125,-0.7044125,0.09,1.10595,-8.125051,-22.5,15.95625,-5.5125003
5.121293800539084,-0.639375,-1.1818125,-0.7044125,-1.128,1.7520001,-8.829,-22.5,15.95625,-5.5125003
5.175202156334232,-0.6703125,-1.0318,-0.9332125,-1.128,1.7520001,-8.829,-22.5,15.95625,-5.5125003
5.22911051212938,-0.6703125,-1.0318,-0.9332125,-1.7410501,3.3760502,-10.318951,-22.5,15.95625,-5.5125003
5.283018867924529,-0.4543,-0.902,-0.5927625,-1.7410501,3.3760502,-10.318951,-27.656252,11.64375,2.7562501
5.336927223719677,-0.33715,-0.8306375,-0.432025,-1.7410501,3.3760502,-10.318951,-27.656252,11.64375,2.7562501
5.3908355795148255,-0.33715,-0.8306375,-0.432025,-1.7340001,3.5080502,-10.278001,-27.656252,11.64375,2.7562501
5.444743935309973,-0.20515,-0.91574997,0.3810125,-3.2640002,2.67405,-9.295951,-27.656252,11.64375,2.7562501
5.498652291105121,0.289575,-0.681725,0.633325,-3.2640002,2.67405,-9.295951,-29.643751,7.3875003,13.012501
5.55256064690027,0.634425,-0.450725,0.500225,-5.0389504,0.51705,-7.485,-29.643751,7.3875003,13.012501
5.606469002695418,0.093775,-0.432575,0.0457875,-5.0389504,0.51705,-7.485,-29.643751,7.3875003,13.012501
5.660377358490567,0.093775,-0.432575,0.0457875,-5.0389504,0.51705,-7.485,-27.4125,3.8437502,22.2
5.714285714285714,-0.444675,-0.352825,-0.0319,-4.6870503,1.5300001,-8.491051,-27.4125,3.8437502,22.2
5.768194070080863,-0.5883625,-0.1368125,-0.0903375,-4.6870503,1.5300001,-8.491051,-27.4125,3.8437502,22.2
5.822102425876011,-0.5883625,-0.1368125,-0.0903375,-4.6870503,1.5300001,-8.491051,-24.487501,-0.24375,28.9125
5.87601078167116,-0.541475,0.5506875,-0.4448125,0.67005,2.3080502,-8.86995,-24.487501,-0.24375,28.9125
5.929919137466308,-1.12255,-0.33261248,1.188825,0.67005,2.3080502,-8.86995,-24.487501,-0.24375,28.9125
5.9838274932614555,-0.1285625,-0.2814625,-0.0658625,-3.5800502,2.3370001,-5.85405,-24.487501,-0.24375,28.9125
6.037735849056604,-0.1285625,-0.2814625,-0.0658625,-3.5800502,2.3370001,-5.85405,-20.587502,-4.2000003,34.0125
6.091644204851752,1.6699375,-2.496175,0.2118875,-3.5800502,2.3370001,-5.85405,-20.587502,-4.2000003,34.0125
6.145552560646901,1.6699375,-2.496175,0.2118875,-11.521951,-0.37800002,-4.3380003,-20.587502,-4.2000003,34.0125
6.199460916442049,2.1445875,-4.4713626,-2.310275,-11.521951,-0.37800002,-4.3380003,-20.587502,-4.2000003,34.0125
6.253369272237197,2.5851374,-5.8515873,-1.4366,-11.521951,-0.37800002,-4.3380003,-11.400001,-4.55625,35.8875
6.307277628032345,2.5851374,-5.8515873,-1.4366,-11.469001,-0.97005004,-3.9379501,-11.400001,-4.55625,35.8875
6.361185983827494,1.4411374,-4.555375,-1.1301125,-9.738001,-0.79695004,2.7499502,-11.400001,-4.55625,35.8875
6.415094339622642,0.41415,-2.5216124,0.3309625,-9.738001,-0.79695004,2.7499502,-2.15625,-3.24375,32.8875
6.46900269541779,0.41415,-2.5216124,0.3309625,-5.37405,-0.71295005,5.262,-2.15625,-3.24375,32.8875
6.5229110512129385,-0.084975,-2.112,0.0341,-4.94805,-2.3130002,6.2779503,-2.15625,-3.24375,32.8875
6.576819407008086,-0.2541,-2.42275,-1.1737,-4.94805,-2.3130002,6.2779503,-2.15625,-3.24375,32.8875
6.630727762803235,-0.2541,-2.42275,-1.1737,-6.9310503,-4.36305,9.966001,5.8875003,0.0,27.487501
6.684636118598383,-0.0243375,-1.5809749,-0.3851375,-6.9310503,-4.36305,9.966001,5.8875003,0.0,27.487501
6.738544474393532,0.38334998,0.19415,0.696025,-2.4139502,-0.62205005,9.298051,5.8875003,0.0,27.487501
6.7924528301886795,0.5567375,-0.467775,0.6683875,-2.4139502,-0.62205005,9.298051,5.8875003,0.0,27.487501
6.846361185983828,0.5567375,-0.467775,0.6683875,-2.4139502,-0.62205005,9.298051,12.543751,2.8875,19.612501
6.900269541778976,1.111275,-4.2383,0.8141375,-5.66895,-2.1100502,10.848001,12.543751,2.8875,19.612501
6.954177897574124,0.64515,-2.347125,0.0617375,-5.66895,-2.1100502,10.848001,12.543751,2.8875,19.612501
7.008086253369273,-0.4085125,-1.5543,0.4609,1.2709501,-0.79005,9.981001,17.1,5.5125003,9.543751
7.061994609164421,0.227975,-2.4088626,0.8300875,1.2709501,-0.79005,9.981001,17.1,5.5125003,9.543751
7.115902964959569,0.227975,-2.4088626,0.8300875,3.288,0.105,9.66495,17.1,5.5125003,9.543751
7.169811320754717,0.5567375,-2.872925,0.3672625,4.7920504,-0.43095002,8.74005,17.456251,7.4437504,-1.25625
7.223719676549866,0.31515,-4.0733,-0.3267,4.7920504,-0.43095002,8.74005,17.456251,7.4437504,-1.25625
7.277628032345014,-0.8724375,-4.1083627,0.0053625,10.2640505,0.91200006,3.6990001,17.456251,7.4437504,-1.25625
7.3315363881401625,-0.229625,-4.489375,-0.27445,10.2640505,0.91200006,3.6990001,17.456251,7.4437504,-1.25625
7.38544474393531,-0.229625,-4.489375,-0.27445,10.2640505,0.91200006,3.6990001,13.856251,10.25625,-9.1125
7.439353099730458,0.0704,-3.5613875,0.1852125,8.973001,-0.735,-3.5719502,13.856251,10.25625,-9.1125
7.493261455525607,-0.37125,-2.3386,-0.4246,8.973001,-0.735,-3.5719502,13.856251,10.25625,-9.1125
7.547169811320755,-0.37125,-2.3386,-0.4246,8.973001,-0.735,-3.5719502,9.1125,12.4875,-14.45625
7.601078167115904,-1.293875,-1.9438375,-0.1936,10.62405,1.23,-8.22,9.1125,12.4875,-14.45625
7.654986522911051,0.6941,-2.5790875,0.944075,10.62405,1.23,-8.22,9.1125,12.4875,-14.45625
7.7088948787062,0.6941,-2.5790875,0.944075,6.8160005,-1.48905,-6.11805,9.1125,12.4875,-14.45625
7.762803234501348,0.48221248,-4.15635,2.2380874,5.0290504,-0.22995001,-8.07405,0.7875,13.25625,-14.812501
7.816711590296497,-0.17215,-5.1555624,1.6592125,5.0290504,-0.22995001,-8.07405,0.7875,13.25625,-14.812501
7.870619946091645,-0.17215,-5.1555624,1.6592125,0.9480001,0.28395,-9.135,0.7875,13.25625,-14.812501
7.9245283018867925,-0.1285625,-4.8587,1.368675,-5.0940003,0.744,-8.364,-3.4125001,13.743751,-10.200001
7.978436657681941,-0.1148125,-4.4521127,0.6353875,-5.0940003,0.744,-8.364,-3.4125001,13.743751,-10.200001
8.032345013477089,-0.1148125,-4.4521127,0.6353875,-4.7130003,0.31500003,-4.2709503,-3.4125001,13.743751,-10.200001
8.086253369272237,-0.4478375,-4.9341874,0.2299,-4.7130003,0.31500003,-4.2709503,-3.4125001,13.743751,-10.200001
8.140161725067387,-0.8713375,-5.390825,-0.122375,-7.8940506,-0.20805001,1.6699501,-3.4125001,13.743751,-10.200001
8.194070080862534,-0.8713375,-5.390825,-0.122375,-7.8940506,-0.20805001,1.6699501,-3.7875001,13.14375,-6.7125
8.247978436657682,-1.0192875,-4.540525,-0.740575,-7.8940506,-0.20805001,1.6699501,-3.7875001,13.14375,-6.7125
8.30188679245283,-1.0192875,-4.540525,-0.740575,-7.7809505,-0.45195,2.2780502,-3.7875001,13.14375,-6.7125
8.35579514824798,-0.6128375,-3.9572499,-0.0988625,-7.017,-1.473,5.0059505,-3.7875001,13.14375,-6.7125
8.409703504043128,-0.47025,-2.42165,-0.1266375,-7.017,-1.473,5.0059505,-2.9437501,14.212501,-4.0875
8.463611859838275,-0.47025,-2.42165,-0.1266375,-5.62995,-1.1850001,5.9689503,-2.9437501,14.212501,-4.0875
8.517520215633423,-0.327525,-0.0144375,0.08195,-6.2310004,-2.0760002,8.830951,-2.9437501,14.212501,-4.0875
8.571428571428571,-0.8234875,-0.1293875,-0.1084875,-6.2310004,-2.0760002,8.830951,-2.9437501,14.212501,-4.0875
8.62533692722372,-0.8234875,-0.1293875,-0.1084875,-6.2310004,-2.0760002,8.830951,-0.95625,15.843751,0.05625
8.679245283018869,-0.9629125,-2.200275,0.044825,-0.56700003,0.6,7.0660505,-0.95625,15.843751,0.05625
8.733153638814017,-0.5861625,-3.9551876,0.0693,-0.56700003,0.6,7.0660505,-0.95625,15.843751,0.05625
8.787061994609164,-0.5861625,-3.9551876,0.0693,-0.56700003,0.6,7.0660505,2.8125,17.643751,1.5562501
8.840970350404314,0.6461125,-4.9044876,0.731225,1.32105,-1.6830001,9.04905,2.8125,17.643751,1.5562501
8.894878706199462,1.4581875,-4.5447874,-0.1244375,1.32105,-1.6830001,9.04905,2.8125,17.643751,1.5562501
8.94878706199461,1.4581875,-4.5447874,-0.1244375,1.9729501,-1.1520001,8.99205,2.8125,17.643751,1.5562501
9.002695417789758,1.4496624,-4.2477875,-0.66934997,6.2700005,-1.2760501,7.59,6.24375,18.1875,-1.0875001
9.056603773584905,0.4109875,-3.0867374,-0.6298875,6.2700005,-1.2760501,7.59,6.24375,18.1875,-1.0875001
9.110512129380055,0.7271,-3.7444,-0.7183,10.9129505,1.8169501,2.8909502,6.24375,18.1875,-1.0875001
9.164420485175203,0.7271,-3.7444,-0.7183,10.9129505,1.8169501,2.8909502,6.5437503,18.487501,-3.4875002
9.21832884097035,0.2789875,-4.5670624,-0.3276625,10.9129505,1.8169501,2.8909502,6.5437503,18.487501,-3.4875002
9.272237196765499,0.0693,-4.1094623,0.239525,7.73295,0.50205004,-4.0339503,6.5437503,18.487501,-3.4875002
9.326145552560648,0.421575,-2.871825,0.614075,7.73295,0.50205004,-4.0339503,6.5437503,18.487501,-3.4875002
9.380053908355796,0.421575,-2.871825,0.614075,7.73295,0.50205004,-4.0339503,5.2875004,17.212502,-5.7562504
9.433962264150944,0.7238,-2.4919126,1.4920125,4.5550504,-0.42600003,-8.12205,5.2875004,17.212502,-5.7562504
9.487870619946092,-0.0050875,-4.228675,2.2317624,4.5550504,-0.42600003,-8.12205,5.2875004,17.212502,-5.7562504
9.54177897574124,-0.0050875,-4.228675,2.2317624,2.94,-2.01405,-9.696,5.2875004,17.212502,-5.7562504
9.59568733153639,-0.6276875,-4.5288377,2.4657874,2.94,-2.01405,-9.696,2.7562501,17.34375,-6.24375
9.649595687331537,-0.3073125,-4.6575375,1.742125,-1.19505,1.02405,-5.1210003,2.7562501,17.34375,-6.24375
9.703504043126685,-0.409475,-6.761425,0.9196,-1.19505,1.02405,-5.1210003,2.7562501,17.34375,-6.24375
9.757412398921833,-0.409475,-6.761425,0.9196,-1.19505,1.02405,-5.1210003,2.34375,17.587502,-5.4
9.811320754716983,-0.1519375,-6.2953,0.2415875,-9.216001,0.44505003,3.9880502,2.34375,17.587502,-5.4
9.86522911051213,-0.199925,-4.5574374,-0.2277,-9.216001,0.44505003,3.9880502,2.34375,17.587502,-5.4
9.919137466307278,-0.199925,-4.5574374,-0.2277,-8.923051,0.423,3.4020002,2.34375,17.587502,-5.4
9.973045822102426,-0.385,-2.8419874,1.317525,-5.5540504,0.45000002,6.1009502,2.5125,16.987501,-4.9125004
10.026954177897574,-1.1066,-2.3024375,-0.0669625,-5.5540504,0.45000002,6.1009502,2.5125,16.987501,-4.9125004
10.080862533692724,-1.1066,-2.3024375,-0.0669625,-5.8720503,1.113,7.2739506,2.5125,16.987501,-4.9125004
10.134770889487871,-0.805475,-1.9757375,0.369325,-3.62295,0.58395004,7.7250004,2.6437502,16.44375,-5.9437504
10.18867924528302,-0.4318875,-1.63845,-0.0308,-3.62295,0.58395004,7.7250004,2.6437502,16.44375,-5.9437504
10.242587601078167,-0.4318875,-1.63845,-0.0308,-6.73395,-0.393,8.805,2.6437502,16.44375,-5.9437504
10.296495956873317,-0.7574875,-1.5989875,-0.4681875,2.15505,1.0360501,11.05395,2.6437502,16.44375,-5.9437504
10.350404312668465,0.9015875,-5.1321874,2.6126375,2.15505,1.0360501,11.05395,2.34375,14.587501,-6.7125
10.404312668463612,0.9015875,-5.1321874,2.6126375,0.402,2.62905,11.941951,2.34375,14.587501,-6.7125
10.45822102425876,2.37545,-5.8345375,2.035825,1.55595,-0.28695002,6.29505,2.34375,14.587501,-6.7125
10.512129380053908,1.633775,-3.1442125,0.320375,1.55595,-0.28695002,6.29505,2.34375,14.587501,-6.7125
10.566037735849058,1.633775,-3.1442125,0.320375,7.6320004,3.5029502,5.892,2.6437502,12.056251,-6.8437505
10.619946091644206,0.912175,-2.5471876,-0.1648625,12.24705,5.70195,5.346,2.6437502,12.056251,-6.8437505
10.673854447439354,0.7558375,-4.0126624,0.747175,12.24705,5.70195,5.346,2.6437502,12.056251,-6.8437505
10.727762803234501,-0.033825,-3.5539625,0.5577,10.387051,2.16,-1.2409501,3.1125002,10.556251,-7.5000005
10.781671159029651,-0.180675,-4.015825,0.777975,10.387051,2.16,-1.2409501,3.1125002,10.556251,-7.5000005
10.835579514824799,-0.180675,-4.015825,0.777975,9.450001,2.3440502,-1.167,3.1125002,10.556251,-7.5000005
10.889487870619947,-1.181125,-3.8083375,1.1154,7.6249504,2.025,-6.609,2.6437502,9.95625,-7.5000005
10.943396226415095,-0.789525,-2.5993,1.0132375,7.6249504,2.025,-6.609,2.6437502,9.95625,-7.5000005
10.997304582210242,-0.789525,-2.5993,1.0132375,8.34405,-0.46005002,-6.3760505,2.6437502,9.95625,-7.5000005
11.051212938005392,0.1640375,-2.6120875,1.611225,8.34405,-0.46005002,-6.3760505,2.6437502,9.95625,-7.5000005
11.10512129380054,1.5411,-5.1800375,1.7666,-0.06405,-0.642,-8.92905,1.9875001,9.65625,-7.74375
11.159029649595688,1.1059124,-6.2007,2.2477124,-0.06405,-0.642,-8.92905,1.9875001,9.65625,-7.74375
11.212938005390836,1.1059124,-6.2007,2.2477124,0.51405,-1.3480501,-9.708,1.9875001,9.65625,-7.74375
11.266846361185985,0.9537,-7.1094375,1.1430374,-13.231951,-2.09805,-4.683,1.9875001,9.65625,-7.74375
11.320754716981133,0.767525,-3.9711375,1.2472625,-13.231951,-2.09805,-4.683,1.3125,10.25625,-7.3875003
11.374663072776281,0.767525,-3.9711375,1.2472625,-11.268001,-2.079,-3.6049502,1.3125,10.25625,-7.3875003
11.428571428571429,0.0438625,-1.170125,1.123925,-9.240001,-0.43605003,-1.9980001,1.3125,10.25625,-7.3875003
11.482479784366577,-0.4797375,-0.645425,1.2505625,-9.240001,-0.43605003,-1.9980001,1.3125,10.25625,-7.3875003
11.536388140161726,-0.4797375,-0.645425,1.2505625,-9.240001,-0.43605003,-1.9980001,0.41250002,10.14375,-4.3875003
11.590296495956874,-0.624525,-1.3382875,0.54175,-7.8700504,2.016,-0.07005,0.41250002,10.14375,-4.3875003
11.644204851752022,-0.1552375,-1.6245625,0.2745875,-7.8700504,2.016,-0.07005,0.41250002,10.14375,-4.3875003
11.69811320754717,-0.1552375,-1.6245625,0.2745875,-7.8700504,2.016,-0.07005,0.6,9.900001,-1.44375
11.75202156334232,0.0650375,-2.1109,-0.2820125,-5.77395,1.59195,3.59805,0.6,9.900001,-1.44375
11.805929919137467,-0.229625,-2.7674625,-0.8833,-5.77395,1.59195,3.59805,0.6,9.900001,-1.44375
11.859838274932615,-0.229625,-2.7674625,-0.8833,-5.3880005,1.40295,4.671,0.6,9.900001,-1.44375
11.913746630727763,-0.8309125,-2.8249376,-1.5324374,-9.850051,-0.78795004,11.0460005,2.4,12.1125,2.7
11.967654986522911,-0.0988625,-1.04665,0.190575,-9.850051,-0.78795004,11.0460005,2.4,12.1125,2.7
12.02156334231806,-0.0988625,-1.04665,0.190575,-8.46405,-0.22995001,8.07195,2.4,12.1125,2.7
12.075471698113208,0.2971375,0.1144,0.32999998,-4.7179503,-0.46695003,5.3179502,2.4,12.1125,2.7
12.129380053908356,0.097075,0.0122375,0.34485,-4.7179503,-0.46695003,5.3179502,8.2875,15.712501,7.2562504
12.183288409703504,0.097075,0.0122375,0.34485,-4.605,-0.30900002,5.3250003,8.2875,15.712501,7.2562504
12.237196765498654,-0.786225,-0.678425,-0.41387498,-6.70305,-1.8970501,9.348001,8.2875,15.712501,7.2562504
12.291105121293802,-1.116225,-1.4564,-0.1244375,-6.70305,-1.8970501,9.348001,17.400002,19.5,9.1125
12.34501347708895,-1.116225,-1.4564,-0.1244375,-6.0810003,-1.7860501,9.5449505,17.400002,19.5,9.1125
12.398921832884097,-0.721325,-0.4103,0.22247499,-4.1599503,-1.14495,8.995951,17.400002,19.5,9.1125
12.452830188679245,-1.1896499,-1.5096124,-0.0169125,-4.1599503,-1.14495,8.995951,17.400002,19.5,9.1125
12.506738544474395,-0.3095125,-4.554275,1.3877875,-2.1649501,-2.29905,9.097051,26.8875,21.84375,5.2875004
12.560646900269543,-0.3095125,-4.554275,1.3877875,-0.19095,-0.49800003,8.31105,26.8875,21.84375,5.2875004
12.61455525606469,0.38225,-4.4202123,2.985125,0.98100007,-0.32805002,8.69505,26.8875,21.84375,5.2875004
12.668463611859838,1.00485,-3.818925,2.4807749,0.98100007,-0.32805002,8.69505,30.112501,20.5125,-4.6875
12.722371967654988,0.767525,-5.3098373,3.4310374,4.9830003,-3.2280002,8.067,30.112501,20.5125,-4.6875
12.776280323450136,-0.082775,-4.9768124,1.1930875,4.9830003,-3.2280002,8.067,30.112501,20.5125,-4.6875
12.830188679245284,-0.082775,-4.9768124,1.1930875,4.9830003,-3.2280002,8.067,22.9125,19.087502,-12.243751
12.884097035040432,-0.541475,-4.71075,0.3257375,11.895,-4.9290004,-0.513,22.9125,19.087502,-12.243751
12.93800539083558,-0.682,-2.84625,0.4310625,11.895,-4.9290004,-0.513,22.9125,19.087502,-12.243751
12.991913746630729,-1.5120875,-2.5408626,0.0394625,8.49195,-3.5400002,-5.2990503,22.9125,19.087502,-12.243751
13.045822102425877,-1.5120875,-2.5408626,0.0394625,8.49195,-3.5400002,-5.2990503,13.556251,19.143751,-15.712501
13.099730458221025,-1.7738875,-2.7515125,0.4384875,8.49195,-3.5400002,-5.2990503,13.556251,19.143751,-15.712501
13.153638814016173,-0.5841,-2.8653624,1.3325125,1.91295,-2.457,-6.08895,13.556251,19.143751,-15.712501
13.207547169811322,-0.5841,-2.8653624,1.3325125,1.91295,-2.457,-6.08895,5.45625,20.5125,-13.6125
13.26145552560647,0.54614997,-4.90765,2.4275625,1.91295,-2.457,-6.08895,5.45625,20.5125,-13.6125
13.315363881401618,0.7909,-4.8874373,2.5562625,-4.7509503,-4.8619504,-6.8959503,5.45625,20.5125,-13.6125
13.369272237196766,0.5163125,-4.5021625,3.0798626,-4.7509503,-4.8619504,-6.8959503,5.45625,20.5125,-13.6125
13.423180592991914,0.5163125,-4.5021625,3.0798626,-4.7509503,-4.8619504,-6.8959503,4.0125003,21.112501,-9.900001
13.477088948787063,-0.3212,-5.4514623,2.585,-8.20695,-0.49605003,1.4089501,4.0125003,21.112501,-9.900001
13.530997304582211,-0.8767,-5.174675,1.400575,-8.20695,-0.49605003,1.4089501,4.0125003,21.112501,-9.900001
13.584905660377359,-0.8767,-5.174675,1.400575,-8.28195,-0.46005002,2.45805,4.0125003,21.112501,-9.900001
13.638814016172507,-1.2395625,-3.8072374,0.4129125,-11.946,-1.2720001,5.3700004,4.2562504,21.112501,-8.512501
13.692722371967657,-0.3212,-1.2255375,1.0451375,-11.946,-1.2720001,5.3700004,4.2562504,21.112501,-8.512501
13.746630727762804,-0.2094125,-1.1616,0.2523125,-5.2039504,-1.434,5.87295,4.2562504,21.112501,-8.512501
13.800539083557952,-0.7128,-1.6841,0.0628375,-5.2039504,-1.434,5.87295,4.6875,20.456251,-8.043751
13.8544474393531,-1.0385375,-0.8944375,0.370425,-7.6110005,-1.9279501,5.8969502,4.6875,20.456251,-8.043751
13.908355795148248,-1.0385375,-0.8944375,0.370425,-6.6120005,-0.9580501,6.333,4.6875,20.456251,-8.043751
13.962264150943398,-0.9299125,-0.5731,0.1299375,-6.67005,-1.41795,9.255,6.0,20.15625,-6.1125
14.016172506738545,-0.2893,-0.9296375,-0.4830375,-6.67005,-1.41795,9.255,6.0,20.15625,-6.1125
14.070080862533693,-0.18493749,-1.103025,0.0787875,-1.1209501,0.69405,9.280951,6.0,20.15625,-6.1125
14.123989218328841,-0.18493749,-1.103025,0.0787875,-1.1209501,0.69405,9.280951,9.4875,20.587502,-4.0875
14.17789757412399,1.5954125,-4.620275,3.1139624,-1.1209501,0.69405,9.280951,9.4875,20.587502,-4.0875
14.231805929919139,1.5954125,-4.620275,3.1139624,-1.6279501,2.73705,11.382001,9.4875,20.587502,-4.0875
14.285714285714286,2.11695,-6.6219997,5.2540126,1.0680001,-0.12405001,9.109051,9.4875,20.587502,-4.0875
14.339622641509434,0.813175,-4.3404627,2.1742876,1.0680001,-0.12405001,9.109051,12.6,18.300001,-5.8875003
14.393530997304582,0.813175,-4.3404627,2.1742876,2.5879502,-1.2739501,8.0119505,12.6,18.300001,-5.8875003
14.447439353099732,-0.606375,-2.5887125,-0.1425875,12.870001,-0.68700004,4.1389503,12.6,18.300001,-5.8875003
14.50134770889488,-0.756525,-3.8977125,1.8709625,12.870001,-0.68700004,4.1389503,12.6,18.300001,-5.8875003
14.555256064690028,-0.756525,-3.8977125,1.8709625,12.870001,-0.68700004,4.1389503,13.500001,17.1,-9.1875
14.609164420485175,-1.7589,-2.9601,0.551375,10.95705,-0.98700005,-0.32895002,13.500001,17.1,-9.1875
14.663072776280325,-1.0693375,-2.462075,0.4225375,10.95705,-0.98700005,-0.32895002,13.500001,17.1,-9.1875
14.716981132075473,-1.0693375,-2.462075,0.4225375,9.984,-2.15805,-0.846,13.500001,17.1,-9.1875
14.77088948787062,-0.740575,-2.3109624,0.1959375,10.37895,-2.4859502,-4.5270004,11.212501,15.1125,-13.25625
14.824797843665769,-1.5013624,-3.2910626,1.0110375,10.37895,-2.4859502,-4.5270004,11.212501,15.1125,-13.25625
14.878706199460916,-1.44925,-4.033975,1.581525,1.16805,-0.80895007,-7.7059503,11.212501,15.1125,-13.25625
14.932614555256066,-1.44925,-4.033975,1.581525,1.16805,-0.80895007,-7.7059503,4.8,13.687501,-12.7875
14.986522911051214,-1.2375,-3.9094,1.826275,1.16805,-0.80895007,-7.7059503,4.8,13.687501,-12.7875
15.040431266846362,-0.969375,-3.769975,1.433575,-0.32505003,0.81600004,-6.8700004,4.8,13.687501,-12.7875
15.09433962264151,-0.682,-4.981075,0.77165,-0.32505003,0.81600004,-6.8700004,4.8,13.687501,-12.7875
15.14824797843666,-0.682,-4.981075,0.77165,-0.32505003,0.81600004,-6.8700004,1.5,12.843751,-8.1
15.202156334231807,-0.1370875,-6.4315624,0.3064875,-8.413051,-0.009,1.3660501,1.5,12.843751,-8.1
15.256064690026955,0.636625,-5.8419623,-0.4830375,-8.413051,-0.009,1.3660501,1.5,12.843751,-8.1
15.309973045822103,0.636625,-5.8419623,-0.4830375,-10.722,-0.81195,2.08905,1.5,12.843751,-8.1
15.36388140161725,-0.069025,-4.3052626,0.21285,-10.722,-0.81195,2.08905,1.6125001,12.4875,-6.05625
15.4177897574124,-0.069025,-4.3052626,0.21285,-10.69305,-1.4269501,0.73095006,1.6125001,12.4875,-6.05625
15.471698113207548,-0.525525,-3.3539,0.3012625,-10.399051,-1.45095,6.747,1.6125001,12.4875,-6.05625
15.525606469002696,-1.000175,-2.6345,0.0713625,-10.399051,-1.45095,6.747,1.6125001,12.4875,-6.05625
15.579514824797844,-1.000175,-2.6345,0.0713625,-10.399051,-1.45095,6.747,1.6125001,12.1125,-6.6000004
15.633423180592994,-0.1456125,-3.2346876,0.8866,-3.24705,-0.29895002,9.660001,1.6125001,12.1125,-6.6000004
15.687331536388141,0.5556375,-4.6330624,3.0001125,-3.24705,-0.29895002,9.660001,1.6125001,12.1125,-6.6000004
15.74123989218329,0.5556375,-4.6330624,3.0001125,-3.24705,-0.29895002,9.660001,-0.65625,11.34375,-8.1
15.795148247978437,0.0385,-5.2289877,2.3945625,1.8910501,0.18405001,10.618051,-0.65625,11.34375,-8.1
15.849056603773585,-0.18287499,-2.887775,1.2068375,1.8910501,0.18405001,10.618051,-0.65625,11.34375,-8.1
15.902964959568735,-0.18287499,-2.887775,1.2068375,3.15405,0.41595003,7.1260505,-0.65625,11.34375,-8.1
15.956873315363882,-0.76505,-2.03005,-0.07975,6.2790003,0.81795,8.244,-0.4875,13.25625,-8.15625
16.01078167115903,-0.804375,-2.806925,-0.2553375,6.2790003,0.81795,8.244,-0.4875,13.25625,-8.15625
16.064690026954178,-0.804375,-2.806925,-0.2553375,6.741,-0.23205002,7.9950004,-0.4875,13.25625,-8.15625
16.118598382749326,-0.04235,-3.3314874,-0.2468125,7.6800003,-1.212,4.6920004,-0.4875,13.25625,-8.15625
16.172506738544474,0.0587125,-3.53375,-0.2915,7.6800003,-1.212,4.6920004,-0.4875,13.25625,-8.15625
16.226415094339625,0.1258125,-3.936075,-0.53735,9.723001,0.26700002,-3.0540001,-0.4875,13.25625,-8.15625
16.280323450134773,-0.01265,-3.5827,0.0149875,9.723001,0.26700002,-3.0540001,-0.4875,13.25625,-8.15625
16.33423180592992,-0.01265,-3.5827,0.0149875,9.723001,0.26700002,-3.0540001,-0.6,12.656251,-7.2562504
16.38814016172507,-0.804375,-3.065425,0.9153375,5.8890004,-0.048,-6.867,-0.6,12.656251,-7.2562504
16.442048517520217,-1.440725,-3.965775,1.6740625,5.8890004,-0.048,-6.867,-0.6,12.656251,-7.2562504
16.495956873315365,-1.440725,-3.965775,1.6740625,5.22795,0.61200005,-6.834,-0.6,12.656251,-7.2562504
16.549865229110512,-0.6606875,-4.5001,1.4760625,1.7070001,1.2060001,-6.38805,-0.05625,12.056251,-6.24375
16.60377358490566,0.3982,-5.766475,1.283425,1.7070001,1.2060001,-6.38805,-0.05625,12.056251,-6.24375
16.657681940700808,1.2346125,-5.7717,1.316425,-4.7899504,0.19800001,-4.31895,-0.05625,12.056251,-6.24375
16.71159029649596,1.2346125,-5.7717,1.316425,-4.7899504,0.19800001,-4.31895,1.1437501,13.087501,-7.4437504
16.765498652291107,1.254825,-4.7320623,-0.0669625,-4.7899504,0.19800001,-4.31895,1.1437501,13.087501,-7.4437504
16.819407008086255,1.254825,-4.7320623,-0.0669625,-10.258051,-1.19505,-0.93000007,1.1437501,13.087501,-7.4437504
16.873315363881403,0.693,-4.081825,1.1345125,-10.258051,-1.19505,-0.93000007,1.1437501,13.087501,-7.4437504
16.92722371967655,0.2140875,-4.080725,0.7865,-10.782001,1.3549501,2.9149501,1.25625,13.687501,-8.043751
16.9811320754717,-0.1584,-3.0932,1.074975,-10.782001,1.3549501,2.9149501,1.25625,13.687501,-8.043751
17.035040431266847,-0.1584,-3.0932,1.074975,-10.795951,1.1869501,3.7699502,1.25625,13.687501,-8.043751
17.088948787061994,0.0066,-1.34145,0.1607375,-5.4409504,-0.39000002,4.78095,1.2,13.9125,-6.4875
17.142857142857142,-0.5809375,0.8369625,-0.2564375,-5.4409504,-0.39000002,4.78095,1.2,13.9125,-6.4875
17.196765498652294,-0.5809375,0.8369625,-0.2564375,-5.19,-0.21495001,4.872,1.2,13.9125,-6.4875
17.25067385444744,-0.1392875,0.3070375,-0.3224375,-6.3750005,0.01605,4.48395,1.2,13.9125,-6.4875
17.30458221024259,0.7462125,0.1005125,-0.1574375,-6.3750005,0.01605,4.48395,4.3875003,16.087502,-1.5
17.358490566037737,0.7462125,0.1005125,-0.1574375,-7.6920004,2.8330503,5.05695,4.3875003,16.087502,-1.5
17.412398921832885,1.26555,-0.648725,0.631125,-10.732051,1.386,6.13395,4.3875003,16.087502,-1.5
17.466307277628033,1.2920874,-1.840575,0.11825,-10.732051,1.386,6.13395,4.3875003,16.087502,-1.5
17.52021563342318,-0.102025,-0.648725,-0.136125,-7.68795,1.9609501,8.188951,9.7875,17.400002,2.4
17.57412398921833,-1.02575,-2.4088626,0.73865,-7.68795,1.9609501,8.188951,9.7875,17.400002,2.4
17.628032345013477,-1.02575,-2.4088626,0.73865,-8.454,3.153,8.377951,9.7875,17.400002,2.4
17.681940700808628,-2.3879626,-1.9575875,2.0189126,-2.9929502,2.0059502,8.995951,18.1875,18.712502,3.1875002
17.735849056603776,-2.635875,-2.8323624,3.331075,-2.9929502,2.0059502,8.995951,18.1875,18.712502,3.1875002
17.789757412398924,-0.9862875,-1.153075,0.9546625,-1.9609501,-3.3070502,7.8919506,18.1875,18.712502,3.1875002
17.84366576819407,-0.9862875,-1.153075,0.9546625,-1.9609501,-3.3070502,7.8919506,27.712502,20.04375,-0.90000004
17.89757412398922,-0.8756,-0.8806875,0.2938375,-1.9609501,-3.3070502,7.8919506,27.712502,20.04375,-0.90000004
17.951482479784367,1.00375,-2.2438624,0.8152375,1.932,-2.0400002,12.89805,27.712502,20.04375,-0.90000004
18.005390835579515,1.2953875,-2.0044749,0.77165,1.932,-2.0400002,12.89805,27.712502,20.04375,-0.90000004
18.059299191374663,1.2953875,-2.0044749,0.77165,1.932,-2.0400002,12.89805,32.7,19.2,-11.15625
18.11320754716981,0.633325,-1.80125,0.93445,6.40395,2.84505,9.066,32.7,19.2,-11.15625
18.167115902964962,-0.232925,-1.187175,0.3949,6.40395,2.84505,9.066,32.7,19.2,-11.15625
18.22102425876011,-0.232925,-1.187175,0.3949,5.3040004,-0.048,9.51795,32.7,19.2,-11.15625
18.274932614555258,0.48125,-1.3041875,-0.0743875,5.3040004,-0.048,9.51795,30.656252,16.9125,-21.243752
18.328840970350406,0.48125,-1.3041875,-0.0743875,5.49405,0.165,8.96805,30.656252,16.9125,-21.243752
18.382749326145554,1.2698125,-2.624875,-0.2288,7.6830006,1.506,7.9090505,30.656252,16.9125,-21.243752
18.4366576819407,0.0672375,-2.3535874,0.8525,7.6830006,1.506,7.9090505,30.656252,16.9125,-21.243752
18.49056603773585,0.0672375,-2.3535874,0.8525,7.6830006,1.506,7.9090505,22.9125,14.587501,-27.243752
18.544474393530997,-0.63195,-2.7834125,0.4257,9.49995,0.078,4.3120503,22.9125,14.587501,-27.243752
18.598382749326145,-0.5127375,-4.2361,0.3884375,9.49995,0.078,4.3120503,22.9125,14.587501,-27.243752
18.652291105121297,-0.5127375,-4.2361,0.3884375,9.49995,0.078,4.3120503,12.6,12.712501,-28.9125
18.706199460916444,-0.3818375,-4.268,0.2256375,7.93905,1.9060501,-7.5760503,12.6,12.712501,-28.9125
18.760107816711592,-0.2616625,-2.6717625,0.3289,7.93905,1.9060501,-7.5760503,12.6,12.712501,-28.9125
18.81401617250674,-0.2616625,-2.6717625,0.3289,7.8210006,-0.009,-6.8820004,12.6,12.712501,-28.9125
18.867924528301888,0.0257125,-2.09605,1.2483625,5.58195,-1.3960501,-6.867,2.2125,11.94375,-27.112501
18.921832884097036,0.031075,-3.9774625,2.1742876,5.58195,-1.3960501,-6.867,2.2125,11.94375,-27.112501
18.975741239892184,0.031075,-3.9774625,2.1742876,4.104,-3.2070003,-8.034,2.2125,11.94375,-27.112501
19.02964959568733,-0.346775,-2.9090874,1.728375,2.97195,-3.456,-9.715051,2.2125,11.94375,-27.112501
19.08355795148248,-0.1584,-1.40855,0.05115,2.97195,-3.456,-9.715051,-5.8125,12.056251,-21.487501
19.13746630727763,-0.968275,-3.1581,1.03125,0.74205005,-0.49095002,-7.2840004,-5.8125,12.056251,-21.487501
19.19137466307278,-0.3488375,-4.717075,1.221825,0.74205005,-0.49095002,-7.2840004,-5.8125,12.056251,-21.487501
19.245283018867926,-0.3488375,-4.717075,1.221825,0.74205005,-0.49095002,-7.2840004,-8.700001,12.243751,-13.6125
19.299191374663074,0.28545,-5.9409623,0.5608625,-5.9700003,-0.49800003,0.26895002,-8.700001,12.243751,-13.6125
19.353099730458222,0.784575,-6.142125,-0.4841375,-5.9700003,-0.49800003,0.26895002,-8.700001,12.243751,-13.6125
19.40700808625337,0.784575,-6.142125,-0.4841375,-7.8529506,-0.57495004,2.49405,-8.700001,12.243751,-13.6125
19.460916442048518,0.1480875,-4.9779124,0.89608747,-10.252951,-0.81900007,5.3560505,-7.8,12.6,-8.700001
19.514824797843666,-0.7788,-4.3786874,0.5566,-10.252951,-0.81900007,5.3560505,-7.8,12.6,-8.700001
19.568733153638814,-0.7788,-4.3786874,0.5566,-9.25605,-1.542,6.18195,-7.8,12.6,-8.700001
19.622641509433965,-1.1331375,-2.6334,0.6428125,-6.9880505,-0.61995006,8.677951,-4.8,14.1,-4.14375
19.676549865229113,-0.525525,-0.52635,0.093775,-3.6739502,-0.50295,8.479051,-4.8,14.1,-4.14375
19.73045822102426,-0.1700875,-1.8704125,0.0979,-3.6739502,-0.50295,8.479051,-4.8,14.1,-4.14375
19.78436657681941,-0.1700875,-1.8704125,0.0979,-3.4390502,0.62700003,7.7629504,-4.8,14.1,-4.14375
19.838274932614556,0.7717875,-3.6774375,0.534325,-1.1850001,-1.176,10.354051,-1.44375,15.056251,-1.8000001
19.892183288409704,1.7274125,-2.674925,2.2295625,-1.1850001,-1.176,10.354051,-1.44375,15.056251,-1.8000001
19.946091644204852,1.0538,-2.1982124,1.7336,0.78300005,2.7460501,9.20505,-1.44375,15.056251,-1.8000001
20.0,1.0538,-2.1982124,1.7336,0.78300005,2.7460501,9.20505,3.6562502,14.64375,-2.04375
20.053908355795148,0.64185,-1.3457125,0.1192125,0.78300005,2.7460501,9.20505,3.6562502,14.64375,-2.04375
20.1078167115903,0.31735,-1.970375,0.3320625,6.7369504,1.7860501,8.184,3.6562502,14.64375,-2.04375
20.161725067385447,0.3961375,-2.51955,0.97377497,6.7369504,1.7860501,8.184,3.6562502,14.64375,-2.04375
20.215633423180595,0.3961375,-2.51955,0.97377497,6.7369504,1.7860501,8.184,8.64375,13.687501,-6.24375
20.269541778975743,-0.3840375,-2.5653374,1.32495,10.64505,1.554,6.201,8.64375,13.687501,-6.24375
20.32345013477089,-0.8331125,-3.653925,0.5534375,10.64505,1.554,6.201,8.64375,13.687501,-6.24375
20.37735849056604,-0.8331125,-3.653925,0.5534375,10.64505,1.554,6.201,9.4875,12.656251,-11.8125
20.431266846361186,-0.968275,-4.3712626,0.3257375,10.243051,1.33605,-0.19005,9.4875,12.656251,-11.8125
20.485175202156334,-0.6788375,-3.739175,0.1991,10.243051,1.33605,-0.19005,9.4875,12.656251,-11.8125
20.539083557951482,-0.6788375,-3.739175,0.1991,8.35995,1.8390001,-1.6530001,9.4875,12.656251,-11.8125
20.592991913746634,-0.297825,-2.3056,0.7759125,9.22305,-0.17505,-3.6769502,7.3875003,11.64375,-15.95625
20.64690026954178,-0.8234875,-3.04425,1.1771375,9.22305,-0.17505,-3.6769502,7.3875003,11.64375,-15.95625
20.70080862533693,-0.8234875,-3.04425,1.1771375,10.255051,-0.48405004,-5.004,7.3875003,11.64375,-15.95625
20.754716981132077,-1.1779625,-3.4082124,0.7535,5.7520504,-1.2070501,-7.2289505,7.3875003,11.64375,-15.95625
20.808625336927225,-0.89265,-4.3968377,1.317525,5.7520504,-1.2070501,-7.2289505,2.5875,11.2875,-16.9125
20.862533692722373,-0.89265,-4.3968377,1.317525,4.5930004,-0.13905,-6.6210003,2.5875,11.2875,-16.9125
20.91644204851752,0.4992625,-5.3706126,1.2441,-2.7469501,1.02195,-4.353,2.5875,11.2875,-16.9125
20.97035040431267,1.287825,-5.8697376,0.5907,-2.7469501,1.02195,-4.353,-0.4875,11.8125,-13.687501
21.024258760107816,1.617825,-5.7770624,0.2693625,-9.867001,-2.7109501,-0.94395006,-0.4875,11.8125,-13.687501
21.078167115902968,0.7962625,-5.8430624,0.535425,-9.867001,-2.7109501,-0.94395006,-0.4875,11.8125,-13.687501
21.132075471698116,0.7962625,-5.8430624,0.535425,-14.335951,-1.7550001,1.43295,-0.4875,11.8125,-13.687501
21.185983827493263,0.3056625,-4.655475,0.0457875,-14.335951,-1.7550001,1.43295,-0.90000004,12.656251,-12.1125
21.23989218328841,0.3056625,-4.655475,0.0457875,-15.723001,-3.1279502,3.1050003,-0.90000004,12.656251,-12.1125
21.29380053908356,-0.20735,-0.9370625,1.13025,-7.2330003,-0.74700004,7.8370504,-0.90000004,12.656251,-12.1125
21.347708894878707,-0.8501625,-1.6522,0.1841125,-7.2330003,-0.74700004,7.8370504,0.05625,13.9125,-9.0
21.401617250673855,-0.8501625,-1.6522,0.1841125,-8.52795,0.71805006,8.196,0.05625,13.9125,-9.0
21.455525606469003,-0.82885,-2.853675,1.106875,-5.2660503,1.8390001,9.760051,0.05625,13.9125,-9.0
21.50943396226415,0.9590625,-4.9619627,3.45125,-5.2660503,1.8390001,9.760051,0.05625,13.9125,-9.0
21.563342318059302,1.5230875,-4.098875,3.249125,0.58395004,2.2360501,8.148001,1.3125,13.856251,-8.512501
21.61725067385445,1.5624125,-1.0201125,1.2313125,0.58395004,2.2360501,8.148001,1.3125,13.856251,-8.512501
21.671159029649598,1.5624125,-1.0201125,1.2313125,1.6210501,3.4620001,7.76805,1.3125,13.856251,-8.512501
21.725067385444746,0.4312,-0.6007375,0.5300625,4.16895,3.2970002,9.81795,4.0875,13.387501,-7.9875
21.778975741239893,-1.1501875,-1.4106125,0.6428125,4.16895,3.2970002,9.81795,4.0875,13.387501,-7.9875
21.83288409703504,-1.1501875,-1.4106125,0.6428125,4.32705,3.831,9.34605,4.0875,13.387501,-7.9875
21.88679245283019,-0.933075,-1.923625,0.4609,6.2119503,1.863,9.54705,4.0875,13.387501,-7.9875
21.940700808625337,-0.4085125,-2.0554874,0.8801375,6.2119503,1.863,9.54705,8.587501,12.6,-10.3125
21.994609164420485,-0.4085125,-2.0554874,0.8801375,7.1650505,0.34695002,8.2560005,8.587501,12.6,-10.3125
22.048517520215636,-0.33825,-2.1619124,0.8844,8.93295,0.19605,4.9339504,8.587501,12.6,-10.3125
22.102425876010784,-0.1573,-3.3485374,-0.383075,8.93295,0.19605,4.9339504,8.587501,12.6,-10.3125
22.156334231805932,-0.1573,-3.3485374,-0.383075,8.93295,0.19605,4.9339504,10.200001,10.856251,-14.75625
22.21024258760108,0.1885125,-4.12225,-0.1628,10.02705,1.5300001,1.39005,10.200001,10.856251,-14.75625
22.264150943396228,-0.6180625,-3.1686876,0.5577,10.02705,1.5300001,1.39005,10.200001,10.856251,-14.75625
22.318059299191376,-0.6180625,-3.1686876,0.5577,10.02705,1.5300001,1.39005,8.1,9.356251,-20.456251
22.371967654986523,-0.901175,-2.085325,0.1681625,9.795,1.4430001,-3.14805,8.1,9.356251,-20.456251
22.42587601078167,-0.444675,-2.019325,1.19405,9.795,1.4430001,-3.14805,8.1,9.356251,-20.456251
22.47978436657682,-0.444675,-2.019325,1.19405,10.918051,0.69405,-2.3359501,8.1,9.356251,-20.456251
22.53369272237197,0.3683625,-4.6000624,2.8106375,3.5680501,-2.4859502,-8.235001,2.04375,8.94375,-22.143751
22.58760107816712,-0.1882375,-4.6905375,2.3626626,2.3130002,-3.04095,-8.42595,2.04375,8.94375,-22.143751
22.641509433962266,-0.1882375,-4.6905375,2.3626626,1.8319501,-2.7850502,-8.53905,2.04375,8.94375,-22.143751
22.695417789757414,-0.016775,-3.2687874,1.5921125,1.8319501,-2.7850502,-8.53905,2.04375,8.94375,-22.143751
22.749326145552562,0.38005,-4.751175,1.136575,-2.9170501,-2.23005,-5.0020504,-3.0,9.4125,-18.0
22.80323450134771,0.8025875,-5.0087123,0.843975,-2.9170501,-2.23005,-5.0020504,-3.0,9.4125,-18.0
22.857142857142858,0.8025875,-5.0087123,0.843975,-4.7130003,-1.6879501,-3.6319501,-3.0,9.4125,-18.0
22.911051212938006,1.140975,-5.2204623,0.7503375,-10.401,-1.8769501,0.74805003,-4.4437504,10.44375,-15.3
22.964959568733153,0.751575,-5.683425,0.696025,-10.401,-1.8769501,0.74805003,-4.4437504,10.44375,-15.3
23.018867924528305,0.751575,-5.683425,0.696025,-10.305,-4.97205,0.87705004,-4.4437504,10.44375,-15.3
23.072776280323453,0.1662375,-3.6464999,1.218525,-8.524051,-1.269,4.41195,-4.4437504,10.44375,-15.3
23.1266846361186,-1.4460875,-1.7182,0.48633748,-8.524051,-1.269,4.41195,-3.1875002,13.9125,-10.5
23.18059299191375,-1.4460875,-1.7182,0.48633748,-8.581051,-2.328,6.5460005,-3.1875002,13.9125,-10.5
23.234501347708896,-1.131075,-3.2858374,0.7577625,-4.6480503,1.4239501,8.12895,-3.1875002,13.9125,-10.5
23.288409703504044,0.7866375,-4.949175,2.7201624,-4.6480503,1.4239501,8.12895,-3.1875002,13.9125,-10.5
23.342318059299192,0.7206375,-4.1339374,3.2704375,-0.22995001,-0.23400001,8.479051,-1.9125,16.143751,-9.1875
23.39622641509434,0.42061248,-1.1626999,1.399475,-0.22995001,-0.23400001,8.479051,-1.9125,16.143751,-9.1875
23.450134770889488,0.42061248,-1.1626999,1.399475,0.49995002,-0.04005,7.63395,-1.9125,16.143751,-9.1875
23.50404312668464,0.4269375,-2.0502625,1.2472625,4.59795,0.033,9.648001,-0.05625,16.3875,-8.45625
23.557951482479787,-0.6521625,-2.690875,0.599225,4.59795,0.033,9.648001,-0.05625,16.3875,-8.45625
23.611859838274935,-0.6521625,-2.690875,0.599225,7.3350005,0.03,8.208,-0.05625,16.3875,-8.45625
23.665768194070083,-0.083875,-2.9228375,1.039775,7.52895,-0.16005,7.425,-0.05625,16.3875,-8.45625
23.71967654986523,0.8558,-3.1473749,0.31295,7.52895,-0.16005,7.425,2.4562502,16.800001,-9.6
23.77358490566038,0.8558,-3.1473749,0.31295,8.05605,-0.9480001,7.188,2.4562502,16.800001,-9.6
23.827493261455526,-0.132825,-2.992,0.6098125,9.8880005,1.69305,2.7210002,2.4562502,16.800001,-9.6
23.881401617250674,-0.8448,-4.835325,-0.7959875,9.8880005,1.69305,2.7210002,2.4562502,16.800001,-9.6
23.935309973045822,-0.8448,-4.835325,-0.7959875,9.8880005,1.69305,2.7210002,2.8125,16.9125,-10.200001
23.989218328840973,-0.63195,-4.3478875,0.31075,9.237,1.4239501,-6.7500005,2.8125,16.9125,-10.200001
24.04312668463612,-0.640475,-2.640825,0.0639375,9.691951,0.79005,-4.7640004,2.8125,16.9125,-10.200001
24.09703504043127,-0.640475,-2.640825,0.0639375,9.691951,0.79005,-4.7640004,1.6125001,15.000001,-12.1125
24.150943396226417,-0.5638875,-1.99595,1.0175,9.691951,0.79005,-4.7640004,1.6125001,15.000001,-12.1125
24.204851752021565,0.2949375,-3.919025,1.6889125,3.213,-0.63405,-8.629951,1.6125001,15.000001,-12.1125
24.258760107816713,-0.0061875,-3.8476624,2.2955625,3.213,-0.63405,-8.629951,1.6125001,15.000001,-12.1125
24.31266846361186,-0.0061875,-3.8476624,2.2955625,3.213,-0.63405,-8.629951,-0.4875,13.6125,-12.3
24.36657681940701,0.24915,-4.0178876,1.0036125,-4.119,1.2970501,-5.7439504,-0.4875,13.6125,-12.3
24.420485175202156,1.19955,-4.4925375,0.663025,-4.119,1.2970501,-5.7439504,-0.4875,13.6125,-12.3
24.474393530997308,1.19955,-4.4925375,0.663025,-4.119,1.2970501,-5.7439504,-2.34375,13.687501,-10.5
24.528301886792455,2.3925,-4.6245375,0.172425,-8.77005,-4.6480503,-0.63795,-2.34375,13.687501,-10.5
24.582210242587603,2.1913376,-5.6791625,0.6694875,-8.77005,-4.6480503,-0.63795,-2.34375,13.687501,-10.5
24.63611859838275,2.1913376,-5.6791625,0.6694875,-8.79705,-3.3600001,0.21105,-2.34375,13.687501,-10.5
24.6900269541779,0.5291,-4.1382,2.1157124,-9.970051,-2.43495,2.53905,-2.7,13.9125,-9.712501
24.743935309973047,-1.15665,-2.2705374,0.7546,-9.970051,-2.43495,2.53905,-2.7,13.9125,-9.712501
24.797843665768195,-1.15665,-2.2705374,0.7546,-10.011001,-1.0540501,4.7569504,-2.7,13.9125,-9.712501
24.851752021563343,-1.18745,-1.8055125,0.54175,-8.049001,-1.3219501,4.695,-2.7,13.9125,-9.712501
24.90566037735849,-0.997975,-0.8679,0.760925,-8.049001,-1.3219501,4.695,-1.44375,15.356251,-5.45625
24.95956873315364,-0.997975,-0.8679,0.760925,-8.095051,-0.34695002,5.55495,-1.44375,15.356251,-5.45625
25.01347708894879,0.0672375,-0.671,0.2820125,-6.885,-0.04005,6.7830005,-1.44375,15.356251,-5.45625
25.067385444743937,-0.738375,-1.352175,0.297,-6.885,-0.04005,6.7830005,-1.44375,15.356251,-5.45625
25.121293800539085,-0.738375,-1.352175,0.297,-6.885,-0.04005,6.7830005,1.5562501,17.2875,-1.2
25.175202156334233,-1.2981375,-3.3889625,2.1763499,-4.9020004,-0.9580501,8.92905,1.5562501,17.2875,-1.2
25.22911051212938,-0.576675,-3.8583875,2.772275,-4.9020004,-0.9580501,8.92905,1.5562501,17.2875,-1.2
25.28301886792453,-0.576675,-3.8583875,2.772275,-4.9020004,-0.9580501,8.92905,6.3,17.94375,0.0
25.336927223719677,-0.1882375,-3.6507626,1.26225,1.5150001,-0.08400001,10.58205,6.3,17.94375,0.0
25.390835579514825,0.0160875,-3.8647125,1.1037124,1.5150001,-0.08400001,10.58205,6.3,17.94375,0.0
25.444743935309976,0.0160875,-3.8647125,1.1037124,2.8969502,-0.41595003,10.177051,6.3,17.94375,0.0
25.498652291105124,0.42061248,-3.8764,0.204325,7.5079503,-2.09295,7.6189504,11.64375,18.54375,-3.1875002
25.55256064690027,-0.984225,-1.024375,0.3650625,7.7830505,-2.7229502,7.8420005,11.64375,18.54375,-3.1875002
25.60646900269542,-1.0767624,-1.0338625,-0.6853,7.7830505,-2.7229502,7.8420005,11.64375,18.54375,-3.1875002
25.660377358490567,-1.0767624,-1.0338625,-0.6853,7.2439504,-2.26305,6.1060505,11.64375,18.54375,-3.1875002
25.714285714285715,-1.310925,-3.0899,-1.3514875,7.3879504,-0.94305,6.0720005,14.45625,19.9125,-8.212501
25.768194070080863,-1.0927125,-5.0342875,-0.8045125,7.3879504,-0.94305,6.0720005,14.45625,19.9125,-8.212501
25.82210242587601,-1.0927125,-5.0342875,-0.8045125,9.085951,-0.73005,4.4599504,14.45625,19.9125,-8.212501
25.87601078167116,0.5599,-5.502475,-0.7310875,6.2239504,-2.11905,-3.6700501,11.587501,18.7875,-12.4125
25.92991913746631,0.8270625,-4.3308372,-0.5522,6.2239504,-2.11905,-3.6700501,11.587501,18.7875,-12.4125
25.983827493261458,0.8270625,-4.3308372,-0.5522,5.8960505,-3.1060503,-4.7839503,11.587501,18.7875,-12.4125
26.037735849056606,-1.1396,-0.31239998,-0.202125,5.41905,2.1739502,-9.67395,11.587501,18.7875,-12.4125
26.091644204851754,-0.771375,0.65174997,0.0298375,5.41905,2.1739502,-9.67395,4.2000003,15.95625,-16.0125
26.1455525606469,-0.771375,0.65174997,0.0298375,5.95305,2.6460001,-9.31005,4.2000003,15.95625,-16.0125
26.19946091644205,0.0268125,-0.6359375,0.3309625,11.512051,-1.00605,-7.9350004,4.2000003,15.95625,-16.0125
26.253369272237197,0.15345,-1.855425,0.108625,11.512051,-1.00605,-7.9350004,4.2000003,15.95625,-16.0125
26.307277628032345,0.15345,-1.855425,0.108625,11.512051,-1.00605,-7.9350004,-5.0437503,13.087501,-14.156251
26.361185983827493,-0.181775,-3.8678749,0.198,2.289,0.21495001,-6.67995,-5.0437503,13.087501,-14.156251
26.415094339622645,-0.576675,-4.1743627,1.54,2.289,0.21495001,-6.67995,-5.0437503,13.087501,-14.156251
26.469002695417792,0.194975,-5.03855,0.715275,-3.07995,1.8840001,-6.2089505,-11.15625,11.8125,-9.056251
26.52291105121294,1.6603125,-3.870075,0.158675,-3.07995,1.8840001,-6.2089505,-11.15625,11.8125,-9.056251
26.576819407008088,1.6603125,-3.870075,0.158675,-3.0630002,0.82995003,-5.2120504,-11.15625,11.8125,-9.056251
26.630727762803236,2.3255374,-3.985025,-0.5075125,-17.470951,-4.833,-2.11095,-11.15625,11.8125,-9.056251
26.684636118598384,1.88485,-3.966875,0.548075,-17.470951,-4.833,-2.11095,-13.500001,13.312501,-4.2000003
26.73854447439353,1.88485,-3.966875,0.548075,-14.215951,-4.716,-1.251,-13.500001,13.312501,-4.2000003
26.79245283018868,0.23539999,-3.2549,0.615175,-10.177951,-2.1049502,0.70995003,-13.500001,13.312501,-4.2000003
26.846361185983827,-1.1672375,-2.673825,0.141625,-10.177951,-2.1049502,0.70995003,-12.4875,15.900001,1.9875001
26.90026954177898,-1.1672375,-2.673825,0.141625,-10.38,-1.91805,1.6990501,-12.4875,15.900001,1.9875001
26.954177897574127,-0.82568747,-2.2950125,0.2745875,-8.746051,-2.088,3.28695,-12.4875,15.900001,1.9875001
27.008086253369274,-0.92785,-1.3308625,0.0554125,-8.746051,-2.088,3.28695,-12.4875,15.900001,1.9875001
27.061994609164422,-0.92785,-1.3308625,0.0554125,-8.746051,-2.088,3.28695,-7.8562503,17.8125,8.700001
27.11590296495957,0.110825,-0.615725,0.1969,-7.1629505,-0.9289501,5.30595,-7.8562503,17.8125,8.700001
27.169811320754718,0.521675,-0.3667125,0.63855,-7.1629505,-0.9289501,5.30595,-7.8562503,17.8125,8.700001
27.223719676549866,0.521675,-0.3667125,0.63855,-6.3850503,-1.8199501,5.3029504,-7.8562503,17.8125,8.700001
27.277628032345014,-0.1700875,-0.287925,0.2682625,-8.01105,-2.0040002,6.33795,-0.1125,18.6,13.500001
27.33153638814016,-0.6458375,-0.8944375,-0.1978625,-8.01105,-2.0040002,6.33795,-0.1125,18.6,13.500001
27.385444743935313,-0.4085125,-1.5989875,0.34485,-3.08205,-1.06605,5.3749504,-0.1125,18.6,13.500001
27.43935309973046,-0.3265625,-3.2773125,2.2275,-3.08205,-1.06605,5.3749504,10.6875,19.5,11.8125
27.49326145552561,-0.3265625,-3.2773125,2.2275,-4.90695,-1.2280501,8.335051,10.6875,19.5,11.8125
27.547169811320757,0.3843125,-3.33905,3.35335,-4.90695,-1.2280501,8.335051,10.6875,19.5,11.8125
27.601078167115904,0.5014625,-2.0480626,1.3388375,0.37800002,0.63405,9.360001,10.6875,19.5,11.8125
27.654986522911052,0.5014625,-2.0480626,1.3388375,0.37800002,0.63405,9.360001,20.456251,18.956251,7.0875
27.7088948787062,-1.0693375,-1.3798125,0.34705,0.37800002,0.63405,9.360001,20.456251,18.956251,7.0875
27.762803234501348,-1.0693375,-1.3798125,0.34705,0.30405003,0.82800007,9.315001,20.456251,18.956251,7.0875
27.816711590296496,-1.51635,-1.98,-0.34155,2.1790502,-1.21395,9.954,20.456251,18.956251,7.0875
27.870619946091647,-0.69905,-3.04095,-0.1392875,2.1790502,-1.21395,9.954,27.112501,20.04375,-0.7875
27.924528301886795,-0.69905,-3.04095,-0.1392875,2.3029501,0.54105,12.655951,27.112501,20.04375,-0.7875
27.978436657681943,0.245025,-3.835975,0.0693,8.09895,-0.73005,8.517,27.112501,20.04375,-0.7875
28.03234501347709,0.3194125,-4.7585998,-0.4554,8.09895,-0.73005,8.517,24.7875,19.85625,-10.556251
28.08625336927224,0.3194125,-4.7585998,-0.4554,8.125951,-0.51495004,7.5400505,24.7875,19.85625,-10.556251
28.140161725067387,0.355575,-4.84165,-0.789525,9.831,-0.282,3.1519501,24.7875,19.85625,-10.556251
28.194070080862534,-0.198825,-3.2751124,0.4874375,9.831,-0.282,3.1519501,24.7875,19.85625,-10.556251
28.247978436657682,-0.198825,-3.2751124,0.4874375,9.831,-0.282,3.1519501,16.800001,17.400002,-15.900001
28.30188679245283,-1.2013375,-2.0150626,-0.1978625,8.46105,1.12995,-5.991,16.800001,17.400002,-15.900001
28.35579514824798,-0.540375,-2.0906875,-0.8768375,8.46105,1.12995,-5.991,16.800001,17.400002,-15.900001
28.40970350404313,-0.540375,-2.0906875,-0.8768375,7.42395,0.96000004,-7.6840506,16.800001,17.400002,-15.900001
28.463611859838277,-0.098725,-0.3986125,0.141625,10.815001,0.57600003,-4.8700504,6.7875004,14.812501,-17.94375
28.517520215633425,0.6056875,-1.99815,0.793925,10.815001,0.57600003,-4.8700504,6.7875004,14.812501,-17.94375
28.571428571428573,0.6056875,-1.99815,0.793925,9.948001,0.33705002,-4.5940504,6.7875004,14.812501,-17.94375
28.62533692722372,0.0171875,-3.6125374,1.302675,2.80605,-2.23005,-6.97305,6.7875004,14.812501,-17.94375
28.67924528301887,-1.0927125,-3.4177,1.8656,2.80605,-2.23005,-6.97305,-1.85625,13.6125,-15.6
28.733153638814017,-1.0927125,-3.4177,1.8656,2.22,-1.04205,-7.8109503,-1.85625,13.6125,-15.6
28.787061994609164,-0.509575,-2.7207124,1.9987,2.5450501,0.47295,-9.042001,-1.85625,13.6125,-15.6
28.840970350404316,-0.0785125,-2.8909376,1.234475,2.5450501,0.47295,-9.042001,-1.85625,13.6125,-15.6
28.894878706199464,-0.0785125,-2.8909376,1.234475,2.5450501,0.47295,-9.042001,-7.6875005,12.95625,-11.1
28.94878706199461,-0.1637625,-4.4851127,0.240625,-5.26905,1.01505,-4.5589504,-7.6875005,12.95625,-11.1
29.00269541778976,1.1708125,-4.2403626,0.2193125,-5.26905,1.01505,-4.5589504,-7.6875005,12.95625,-11.1
29.056603773584907,1.1708125,-4.2403626,0.2193125,-7.05105,-2.25795,-1.7520001,-7.6875005,12.95625,-11.1
29.110512129380055,1.88705,-3.6188624,-0.6417125,-7.05105,-2.25795,-1.7520001,-10.012501,14.700001,-6.3562503
29.164420485175203,1.88705,-3.6188624,-0.6417125,-9.096001,-2.5150502,-1.43505,-10.012501,14.700001,-6.3562503
29.21832884097035,0.9505375,-3.3081124,0.989725,-13.467001,-2.59395,-2.47005,-10.012501,14.700001,-6.3562503
29.2722371967655,-0.852225,-2.81215,1.0036125,-13.467001,-2.59395,-2.47005,-10.012501,14.700001,-6.3562503
29.32614555256065,-1.0630125,-2.935625,-0.04895,-9.261001,-1.554,3.08505,-9.543751,17.587502,-0.6
29.380053908355798,-0.589325,-1.303225,0.501325,-9.261001,-1.554,3.08505,-9.543751,17.587502,-0.6
29.433962264150946,-0.589325,-1.303225,0.501325,-6.3679504,-1.3050001,3.14295,-9.543751,17.587502,-0.6
29.487870619946094,-0.6287875,-1.1605,0.090475,-7.99695,-0.23700002,6.4099503,-6.3,18.7875,5.2875004
29.54177897574124,-0.183975,-1.40855,0.1214125,-7.99695,-0.23700002,6.4099503,-6.3,18.7875,5.2875004
29.59568733153639,-0.183975,-1.40855,0.1214125,-8.752951,-0.22005,6.2040005,-6.3,18.7875,5.2875004
29.649595687331537,-0.3861,-1.235025,0.47795,-7.08195,-0.93405,5.1790504,2.34375,19.9125,9.056251
29.703504043126685,-0.2893,-1.532025,0.4140125,-7.08195,-0.93405,5.1790504,2.34375,19.9125,9.056251
29.757412398921833,-0.2893,-1.532025,0.4140125,-5.7790504,1.28295,8.73495,2.34375,19.9125,9.056251
29.811320754716984,1.0665874,-3.4134374,1.3558875,-2.2680001,-0.26805001,9.34605,2.34375,19.9125,9.056251
29.865229110512132,1.222925,-2.8941,3.086325,-2.2680001,-0.26805001,9.34605,11.94375,19.0125,6.8437505
29.91913746630728,1.222925,-2.8941,3.086325,-1.8940501,-0.26805001,9.135,11.94375,19.0125,6.8437505
29.973045822102428,-0.6425375,-1.4586,1.8231125,0.11400001,1.52505,9.01305,11.94375,19.0125,6.8437505
30.026954177897576,-0.6914875,-1.1595374,-0.01265,0.11400001,1.52505,9.01305,11.94375,19.0125,6.8437505
30.080862533692724,-0.0083875,-1.98,0.51507497,2.1379502,0.76605004,9.80805,20.5125,18.84375,2.15625
30.13477088948787,-0.003025,-1.86615,0.5768125,2.1379502,0.76605004,9.80805,20.5125,18.84375,2.15625
30.18867924528302,-0.003025,-1.86615,0.5768125,2.775,0.9979501,9.729,20.5125,18.84375,2.15625
30.242587601078167,-0.0380875,-2.4248126,0.7407125,5.352,0.26295,8.96805,24.4125,17.400002,-7.0875
30.29649595687332,0.5174125,-3.3177376,0.9791375,5.352,0.26295,8.96805,24.4125,17.400002,-7.0875
30.350404312668466,-0.622325,-1.9427375,0.78113747,9.864,-0.10995001,6.36705,24.4125,17.400002,-7.0875
30.404312668463614,-0.622325,-1.9427375,0.78113747,9.864,-0.10995001,6.36705,22.5,16.2,-16.85625
30.458221024258762,-0.9213875,-2.281125,-0.430925,9.864,-0.10995001,6.36705,22.5,16.2,-16.85625
30.51212938005391,-0.8320125,-2.185425,0.1309,9.25395,0.82305,4.84095,22.5,16.2,-16.85625
30.566037735849058,-0.8320125,-2.185425,0.1309,9.88605,0.591,4.28805,22.5,16.2,-16.85625
30.619946091644206,-0.327525,-1.6874,0.4065875,9.42405,-0.27495003,0.53505003,15.543751,14.043751,-23.75625
30.673854447439354,-0.2574,-2.5047,-0.5586625,9.42405,-0.27495003,0.53505003,15.543751,14.043751,-23.75625
30.7277628032345,-0.33935,-2.7748876,-0.2490125,8.775001,-0.30600002,0.504,15.543751,14.043751,-23.75625
30.781671159029653,-0.33935,-2.7748876,-0.2490125,8.61705,-0.28695002,-0.786,15.543751,14.043751,-23.75625
30.8355795148248,-0.4074125,-2.22365,-0.153175,8.61705,-0.28695002,-0.786,5.5875,11.75625,-26.04375
30.88948787061995,-0.150975,-1.8799,-0.0105875,8.7630005,0.66300005,-3.6700501,5.5875,11.75625,-26.04375
30.943396226415096,-0.150975,-1.8799,-0.0105875,10.9810505,0.08295,-7.82805,5.5875,11.75625,-26.04375
30.997304582210244,-0.47025,-4.621375,1.1089375,10.9810505,0.08295,-7.82805,5.5875,11.75625,-26.04375
31.051212938005392,0.6323625,-6.4656625,2.2933624,10.9810505,0.08295,-7.82805,-4.9125004,9.712501,-24.712502
31.10512129380054,0.6323625,-6.4656625,2.2933624,-0.44805002,1.36395,-7.1380506,-4.9125004,9.712501,-24.712502
31.159029649595688,0.64295,-4.3351,2.7489,-0.44805002,1.36395,-7.1380506,-4.9125004,9.712501,-24.712502
31.212938005390836,0.4120875,-3.8380375,0.31501248,-0.44805002,1.36395,-7.1380506,-10.200001,9.6,-18.900002
31.266846361185987,0.4120875,-3.8380375,0.31501248,-5.0680504,0.63405,-4.8790503,-10.200001,9.6,-18.900002
31.320754716981135,0.0735625,-3.003825,-0.1744875,-5.0680504,0.63405,-4.8790503,-10.200001,9.6,-18.900002
31.374663072776283,0.1343375,-3.769975,-0.153175,-6.3970504,0.45705003,-5.0160003,-10.200001,9.6,-18.900002
31.42857142857143,0.1343375,-3.769975,-0.153175,-12.47805,-1.3549501,-0.58005005,-11.700001,12.056251,-10.9875
31.48247978436658,-0.1956625,-5.0556,-0.2787125,-12.47805,-1.3549501,-0.58005005,-11.700001,12.056251,-10.9875
31.536388140161726,-0.67347497,-4.61395,-1.134375,-9.76395,-1.25205,1.43805,-11.700001,12.056251,-10.9875
31.590296495956874,-0.67347497,-4.61395,-1.134375,-8.823,-2.32095,3.7560003,-11.700001,12.056251,-10.9875
31.644204851752022,-0.5138375,-3.2825375,0.0352,-8.823,-2.32095,3.7560003,-9.900001,14.587501,-5.1000004
31.69811320754717,-0.85965,-1.2233375,0.4087875,-10.686001,-2.0070002,4.77405,-9.900001,14.587501,-5.1000004
31.75202156334232,-0.85965,-1.2233375,0.4087875,-5.8720503,-1.542,6.5080504,-9.900001,14.587501,-5.1000004
31.80592991913747,-1.5035625,-3.1293626,0.1447875,-5.8720503,-1.542,6.5080504,-9.900001,14.587501,-5.1000004
31.859838274932617,-0.887425,-3.919025,2.1572375,-5.8720503,-1.542,6.5080504,-5.4,17.8125,-0.24375
31.913746630727765,0.2545125,-3.6199625,2.1700249,-1.6350001,-2.112,7.9930506,-5.4,17.8125,-0.24375
31.967654986522913,0.2545125,-3.6199625,2.1700249,-2.9310002,-3.4099503,8.167951,-5.4,17.8125,-0.24375
32.02156334231806,1.2687125,-3.04315,0.764225,-2.9310002,-3.4099503,8.167951,0.84375006,19.087502,0.65625
32.07547169811321,1.4986125,-2.87925,0.231,-3.1230001,-3.2040002,8.39805,0.84375006,19.087502,0.65625
32.129380053908356,1.4986125,-2.87925,0.231,2.4520502,-1.8679501,9.8539505,0.84375006,19.087502,0.65625
32.18328840970351,1.3145,-2.1874876,-0.545875,2.4520502,-1.8679501,9.8539505,0.84375006,19.087502,0.65625
32.23719676549865,1.13245,-3.4082124,-0.071225,2.4520502,-1.8679501,9.8539505,5.7562504,18.6,-1.5
32.2911051212938,1.13245,-3.4082124,-0.071225,7.1629505,-1.6879501,8.38095,5.7562504,18.6,-1.5
32.34501347708895,0.1343375,-4.51495,1.0588875,7.1629505,-1.6879501,8.38095,5.7562504,18.6,-1.5
32.3989218328841,-1.0129625,-3.46665,0.698225,8.64795,-0.90300006,7.2840004,5.7562504,18.6,-1.5
32.45283018867925,-1.0129625,-3.46665,0.698225,10.365001,1.88205,2.9610002,7.6875005,18.35625,-5.15625
32.506738544474395,-0.71073747,-3.4315875,-0.11055,10.365001,1.88205,2.9610002,7.6875005,18.35625,-5.15625
32.560646900269546,-1.0417,-2.8260374,-0.3361875,11.16705,-0.05205,2.8600502,7.6875005,18.35625,-5.15625
32.61455525606469,-1.0417,-2.8260374,-0.3361875,8.43,-0.83100003,-3.79395,7.5000005,18.112501,-8.64375
32.66846361185984,-0.4222625,-1.2403874,-0.4681875,8.43,-0.83100003,-3.79395,7.5000005,18.112501,-8.64375
32.722371967654986,-0.0807125,-0.6337375,0.5545375,6.7099504,-0.06195,-4.8240004,7.5000005,18.112501,-8.64375
32.77628032345014,-0.0807125,-0.6337375,0.5545375,11.116951,1.24905,-6.11805,7.5000005,18.112501,-8.64375
32.83018867924528,0.15125,-2.7132876,-0.0350625,11.116951,1.24905,-6.11805,2.04375,16.25625,-13.500001
32.88409703504043,-0.114675,-4.5937376,1.1419375,11.377951,-0.20295002,-6.3160505,2.04375,16.25625,-13.500001
32.938005390835585,-0.114675,-4.5937376,1.1419375,3.11295,0.10200001,-7.2739506,2.04375,16.25625,-13.500001
32.99191374663073,-0.215875,-4.6692247,1.8997,3.11295,0.10200001,-7.2739506,2.04375,16.25625,-13.500001
33.04582210242588,0.5237375,-4.7256,0.956725,3.11295,0.10200001,-7.2739506,-3.9,14.75625,-13.14375
33.099730458221025,0.5237375,-4.7256,0.956725,-0.86700004,0.62205005,-7.5690002,-3.9,14.75625,-13.14375
33.153638814016176,1.4784,-4.28725,0.2501125,-0.86700004,0.62205005,-7.5690002,-3.9,14.75625,-13.14375
33.20754716981132,2.0637374,-4.77565,-0.334125,-2.1360002,1.4119501,-6.79995,-3.9,14.75625,-13.14375
33.26145552560647,1.8913125,-4.800125,-0.024475,-6.18405,-1.09695,-1.0999501,-7.2000003,14.1,-9.1875
33.315363881401616,-0.04125,-3.76145,0.3639625,-6.18405,-1.09695,-1.0999501,-7.2000003,14.1,-9.1875
33.36927223719677,-0.04125,-3.76145,0.3639625,-12.121051,-4.6650004,-0.75795,-7.2000003,14.1,-9.1875
33.42318059299192,-0.3872,-2.544025,0.2011625,-12.121051,-4.6650004,-0.75795,-7.5000005,14.043751,-6.4125004
33.47708894878706,-1.2236125,-1.483075,0.7099125,-11.899951,-2.8590002,4.8960004,-7.5000005,14.043751,-6.4125004
33.530997304582215,-1.1490875,-1.1584375,0.3608,-11.899951,-2.8590002,4.8960004,-7.5000005,14.043751,-6.4125004
33.58490566037736,-1.1490875,-1.1584375,0.3608,-7.3360505,-3.039,5.04495,-6.3,14.887501,-1.8000001
33.63881401617251,-1.0214875,-0.6582125,0.3311,-7.3360505,-3.039,5.04495,-6.3,14.887501,-1.8000001
33.692722371967655,-0.0317625,-0.550825,-0.072325,-7.37895,-1.2210001,5.7769504,-6.3,14.887501,-1.8000001
33.746630727762806,-0.0317625,-0.550825,-0.072325,-7.8409505,-2.7919502,8.09595,-6.3,14.887501,-1.8000001
33.80053908355795,0.274725,-0.4134625,0.2693625,-7.8409505,-2.7919502,8.09595,-2.4562502,16.743752,4.55625
33.8544474393531,-0.2509375,-1.855425,0.81633747,-7.965,-2.9290502,7.6650004,-2.4562502,16.743752,4.55625
33.90835579514825,0.13213749,-3.7455,2.2688875,-5.13495,-1.9210501,7.9210505,-2.4562502,16.743752,4.55625
33.9622641509434,0.440825,-3.100625,2.11035,-5.13495,-1.9210501,7.9210505,5.9437504,18.1875,7.8
34.01617250673855,0.440825,-3.100625,2.11035,-4.1839504,-1.473,9.51105,5.9437504,18.1875,7.8
34.07008086253369,-0.14025,-2.5471876,1.156925,-4.1839504,-1.473,9.51105,5.9437504,18.1875,7.8
34.123989218328845,-0.3883,-2.0992124,0.4076875,-4.1839504,-1.473,9.51105,15.4875,18.487501,4.9125004
34.17789757412399,0.2556125,-2.1428,0.319275,-0.67305005,-1.0819501,9.67395,15.4875,18.487501,4.9125004
34.23180592991914,0.2556125,-2.1428,0.319275,-0.67305005,-1.0819501,9.67395,15.4875,18.487501,4.9125004
34.285714285714285,0.15125,-2.7249749,0.1214125,5.00295,-2.9580002,9.063001,15.4875,18.487501,4.9125004
34.339622641509436,0.15125,-2.7249749,0.1214125,5.00295,-2.9580002,9.063001,22.556252,18.712502,-0.7875
34.39353099730459,0.275825,-3.46775,-0.397925,5.00295,-2.9580002,9.063001,22.556252,18.712502,-0.7875
34.44743935309973,0.6972625,-4.5032625,-0.37661248,5.10795,-2.2009501,8.845051,22.556252,18.712502,-0.7875
34.50134770889488,0.6972625,-4.5032625,-0.37661248,7.86705,0.021,7.392,22.556252,18.712502,-0.7875
34.55525606469003,-0.3339875,-3.1920624,0.7524,7.86705,0.021,7.392,22.612501,17.8875,-10.14375
34.60916442048518,-0.6436375,-2.74725,0.0884125,10.033951,0.91905004,6.7980003,22.612501,17.8875,-10.14375
34.66307277628032,-0.6436375,-2.74725,0.0884125,9.567,-0.17895001,1.3270501,22.612501,17.8875,-10.14375
34.716981132075475,-0.163625,-3.5784376,-0.2255,9.567,-0.17895001,1.3270501,22.612501,17.8875,-10.14375
34.77088948787062,-0.3883,-2.4897125,-0.0169125,9.567,-0.17895001,1.3270501,16.2,15.843751,-16.9125
34.82479784366577,-0.3883,-2.4897125,-0.0169125,8.154,-1.4970001,-3.7129502,16.2,15.843751,-16.9125
34.87870619946092,-0.6138,-1.154175,0.01705,8.154,-1.4970001,-3.7129502,16.2,15.843751,-16.9125
34.932614555256066,-0.6138,-1.154175,0.01705,9.199051,-0.64395005,-5.55705,16.2,15.843751,-16.9125
34.98652291105122,-0.51919997,-1.791625,0.5204375,9.199051,-0.64395005,-5.55705,6.24375,12.656251,-18.6
35.04043126684636,0.1406625,-3.5710125,1.466575,10.108951,0.564,-6.3240004,6.24375,12.656251,-18.6
35.09433962264151,0.1406625,-3.5710125,1.466575,6.71295,-0.34695002,-5.7130504,6.24375,12.656251,-18.6
35.14824797843666,0.1480875,-4.6905375,2.57125,6.71295,-0.34695002,-5.7130504,6.24375,12.656251,-18.6
35.20215633423181,0.7962625,-3.0963626,2.37325,6.71295,-0.34695002,-5.7130504,-2.8875,11.15625,-15.95625
35.25606469002695,0.7280625,-3.9722376,1.826275,-1.64295,-1.4680501,-8.52705,-2.8875,11.15625,-15.95625
35.309973045822105,0.423775,-5.030025,1.383525,-1.64295,-1.4680501,-8.52705,-2.8875,11.15625,-15.95625
35.363881401617256,0.423775,-5.030025,1.383525,-5.3089504,0.12405001,-3.7800002,-7.14375,11.2875,-11.887501
35.4177897574124,-0.0647625,-4.3872123,0.12773749,-5.3089504,0.12405001,-3.7800002,-7.14375,11.2875,-11.887501
35.47169811320755,-0.0275,-4.2670374,0.3735875,-6.4729505,0.22905001,-2.5849502,-7.14375,11.2875,-11.887501
35.525606469002696,-0.0275,-4.2670374,0.3735875,-10.737,-3.8410501,0.13005,-7.8,12.243751,-7.8
35.57951482479785,-0.07645,-3.0144124,-0.6215,-10.737,-3.8410501,0.13005,-7.8,12.243751,-7.8
35.63342318059299,-0.3722125,-1.2722875,0.7110125,-8.236051,-3.5710502,0.039,-7.8,12.243751,-7.8
35.68733153638814,-0.3722125,-1.2722875,0.7110125,-12.826951,-2.0640001,3.8400002,-7.8,12.243751,-7.8
35.74123989218329,-1.3949375,-1.27765,0.5641625,-12.826951,-2.0640001,3.8400002,-6.8437505,14.2875,-2.5875
35.79514824797844,-0.8171625,-3.4859,0.4140125,-11.00205,-2.6100001,5.0010004,-6.8437505,14.2875,-2.5875
35.84905660377359,-0.8171625,-3.4859,0.4140125,-5.6850004,-0.69705003,6.2250004,-6.8437505,14.2875,-2.5875
35.902964959568735,-0.051975,-2.22695,0.254375,-5.6850004,-0.69705003,6.2250004,-6.8437505,14.2875,-2.5875
35.956873315363886,-0.3883,-1.7298875,0.534325,-5.6850004,-0.69705003,6.2250004,-3.3000002,16.6875,1.8000001
36.01078167115903,-0.3883,-1.7298875,0.534325,-3.8359501,-0.27495003,8.41905,-3.3000002,16.6875,1.8000001
36.06469002695418,-0.9128625,-3.4208624,2.8276875,-3.8359501,-0.27495003,8.41905,-3.3000002,16.6875,1.8000001
36.118598382749326,-0.01155,-2.9176126,0.93128747,-4.0740004,-0.63195,9.111,-3.3000002,16.6875,1.8000001
36.17250673854448,-0.01155,-2.9176126,0.93128747,-4.7899504,-1.4419501,11.96895,4.0125003,18.35625,3.35625
36.22641509433962,0.4269375,-4.374425,0.876975,-4.7899504,-1.4419501,11.96895,4.0125003,18.35625,3.35625
36.28032345013477,0.54725,-4.9566,-0.6873625,-2.42295,-2.079,10.663051,4.0125003,18.35625,3.35625
36.334231805929925,0.3694625,-4.8565,-0.0446875,4.4089503,-1.6360501,9.22395,9.7875,19.2,-0.3
36.38814016172507,0.3694625,-4.8565,-0.0446875,7.2510004,0.093,6.0030003,9.7875,19.2,-0.3
36.44204851752022,-0.04125,-4.9619627,-0.8694125,9.484051,-0.97695005,2.319,9.7875,19.2,-0.3
36.495956873315365,-0.04125,-4.9619627,-0.8694125,9.484051,-0.97695005,2.319,10.8,19.612501,-3.9562502
36.549865229110516,0.41305,-5.0875,-0.01265,9.484051,-0.97695005,2.319,10.8,19.612501,-3.9562502
36.60377358490566,0.8185375,-3.313475,1.0451375,7.3500004,-1.4299501,-5.4570003,10.8,19.612501,-3.9562502
36.65768194070081,0.3449875,-3.6444376,3.2181876,5.8500004,-4.32,-6.9820504,10.8,19.612501,-3.9562502
36.711590296495956,0.1087625,-5.341875,2.3711874,5.8500004,-4.32,-6.9820504,9.4875,18.6,-6.05625
36.76549865229111,0.1087625,-5.341875,2.3711874,5.3040004,0.10905001,-8.103001,9.4875,18.6,-6.05625
36.81940700808626,1.059025,-3.5773375,0.7726125,5.3040004,0.10905001,-8.103001,9.4875,18.6,-6.05625
36.8733153638814,0.1428625,-0.599775,0.2767875,5.3040004,0.10905001,-8.103001,7.3875003,18.300001,-5.9437504
36.927223719676554,0.1428625,-0.599775,0.2767875,-7.5010505,-9.427051,-10.699051,7.3875003,18.300001,-5.9437504
36.9811320754717,0.2407625,-0.8402625,-0.120175,-7.5010505,-9.427051,-10.699051,7.3875003,18.300001,-5.9437504
37.03504043126685,1.142075,-1.53945,-1.2269125,-7.5010505,-9.427051,-10.699051,2.4,18.243752,-3.7125
37.088948787061994,1.142075,-1.53945,-1.2269125,-2.2729502,-1.554,-4.0960503,2.4,18.243752,-3.7125
37.142857142857146,1.357125,-2.136475,0.60885,-2.2729502,-1.554,-4.0960503,2.4,18.243752,-3.7125
37.19676549865229,0.097075,-4.2414627,0.501325,-3.62295,-1.96395,-4.61805,2.4,18.243752,-3.7125
37.25067385444744,0.097075,-4.2414627,0.501325,-8.43,-7.293,-6.6130505,-1.0125,19.143751,-0.71250004
37.30458221024259,-1.0597125,-3.2836375,0.289575,-8.43,-7.293,-6.6130505,-1.0125,19.143751,-0.71250004
37.35849056603774,-0.9128625,-3.1112125,1.0494,-9.838051,-6.30105,-4.81005,-1.0125,19.143751,-0.71250004
37.41239892183289,-0.9128625,-3.1112125,1.0494,-11.32995,-2.6179502,1.4809501,-1.0125,19.143751,-0.71250004
37.46630727762803,-0.476575,-4.096675,1.4133625,-11.32995,-2.6179502,1.4809501,-1.9125,18.900002,3.1125002
37.520215633423184,0.1087625,-5.6643124,1.19735,-7.7140503,-1.8270001,4.11,-1.9125,18.900002,3.1125002
37.57412398921833,0.1087625,-5.6643124,1.19735,-8.071051,-3.55905,7.4230504,-1.9125,18.900002,3.1125002
37.62803234501348,0.3449875,-4.8544374,1.857075,-8.071051,-3.55905,7.4230504,-1.9125,18.900002,3.1125002
37.681940700808624,0.554675,-3.5539625,0.5278625,-8.071051,-3.55905,7.4230504,-1.25625,18.487501,4.4437504
37.735849056603776,0.554675,-3.5539625,0.5278625,-1.8270001,-0.97200006,7.25295,-1.25625,18.487501,4.4437504
37.78975741239893,0.8100125,-2.19175,-0.4681875,-1.8270001,-0.97200006,7.25295,-1.25625,18.487501,4.4437504
37.84366576819407,0.8100125,-2.19175,-0.4681875,1.6519501,-0.32295,10.56,-1.25625,18.487501,4.4437504
37.89757412398922,0.1034,-0.65725,1.038675,1.6519501,-0.32295,10.56,0.90000004,18.243752,5.2125
37.95148247978437,-0.8980125,0.286825,0.6875,0.294,-1.5880501,8.41395,0.90000004,18.243752,5.2125
38.00539083557952,-0.8980125,0.286825,0.6875,3.7360501,-0.95100003,9.621,0.90000004,18.243752,5.2125
38.05929919137466,-1.833425,0.8922375,0.5033875,3.7360501,-0.95100003,9.621,0.90000004,18.243752,5.2125
38.113207547169814,-1.588675,0.137775,-1.0885875,3.7360501,-0.95100003,9.621,8.512501,19.3875,4.55625
38.16711590296496,-1.588675,0.137775,-1.0885875,3.561,-3.11295,13.137001,8.512501,19.3875,4.55625
38.22102425876011,-0.476575,-2.12575,-1.045,3.561,-3.11295,13.137001,8.512501,19.3875,4.55625
38.27493261455526,0.67485,-2.6664,-1.1087999,3.108,-2.3400002,11.557051,8.512501,19.3875,4.55625
38.328840970350406,0.726,-2.640825,-0.676775,2.9160001,-4.66305,8.481,16.087502,21.956251,-1.1437501
38.38274932614556,0.3716625,-2.5312376,-0.5735125,2.9160001,-4.66305,8.481,16.087502,21.956251,-1.1437501
38.4366576819407,0.3716625,-2.5312376,-0.5735125,8.511001,-0.28695002,5.95695,16.087502,21.956251,-1.1437501
38.49056603773585,1.4144624,-3.6933875,-0.2787125,8.511001,-0.28695002,5.95695,16.3125,21.54375,-10.8
38.544474393531,1.7604125,-4.1573124,-0.4246,9.0070505,-1.14195,5.5020003,16.3125,21.54375,-10.8
38.59838274932615,1.7604125,-4.1573124,-0.4246,9.226951,-4.4089503,1.4950501,16.3125,21.54375,-10.8
38.65229110512129,0.4417875,-3.4709125,-0.2457125,9.226951,-4.4089503,1.4950501,12.0,19.3875,-18.54375
38.706199460916444,0.1406625,-3.0889375,-1.5037,8.976001,-3.8560503,0.19695,12.0,19.3875,-18.54375
38.760107816711596,0.1406625,-3.0889375,-1.5037,7.29195,-0.83595,-0.89895004,12.0,19.3875,-18.54375
38.81401617250674,-0.181775,-1.4521375,0.663025,7.29195,-0.83595,-0.89895004,12.0,19.3875,-18.54375
38.86792452830189,-0.9618125,-2.6280375,1.00045,7.1920505,-2.4450002,-3.7830002,4.8562503,15.4875,-22.5
38.921832884097036,-0.9618125,-2.6280375,1.00045,9.699,2.301,-4.695,4.8562503,15.4875,-22.5
38.97574123989219,-0.1222375,-3.6134999,2.0295,9.699,2.301,-4.695,4.8562503,15.4875,-22.5
39.02964959568733,0.7898,-4.4638,1.793275,9.28995,1.9990501,-4.53,4.8562503,15.4875,-22.5
39.08355795148248,1.076075,-5.5493627,0.6620625,4.296,0.79695004,-8.7949505,-3.1875002,14.2875,-21.900002
39.13746630727763,1.076075,-5.5493627,0.6620625,4.296,0.79695004,-8.7949505,-3.1875002,14.2875,-21.900002
39.19137466307278,1.5379375,-6.0069623,0.6439125,-7.00995,-2.3110502,-8.103001,-3.1875002,14.2875,-21.900002
39.24528301886793,0.2556125,-6.0165873,0.9238625,-7.00995,-2.3110502,-8.103001,-6.6562505,15.656251,-15.056251
39.299191374663074,0.2556125,-6.0165873,0.9238625,-7.5660005,-5.5609503,-4.3879504,-6.6562505,15.656251,-15.056251
39.353099730458226,-1.12035,-4.766025,0.3331625,-7.5660005,-5.5609503,-4.3879504,-6.6562505,15.656251,-15.056251
39.40700808625337,-0.114675,-2.7941375,0.44165,-9.237,-6.0420003,-3.045,-6.6562505,15.656251,-15.056251
39.46091644204852,-0.114675,-2.7941375,0.44165,-11.0119505,0.79905003,2.5780501,-5.0437503,17.04375,-8.1
39.514824797843666,0.97185,-1.105225,-0.0946,-11.0119505,0.79905003,2.5780501,-5.0437503,17.04375,-8.1
39.56873315363882,0.048125,-1.153075,0.5577,-10.30095,1.4580001,4.12995,-5.0437503,17.04375,-8.1
39.62264150943396,0.048125,-1.153075,0.5577,-7.8550506,-2.9479501,5.4760504,-5.0437503,17.04375,-8.1
39.67654986522911,-1.327975,-1.480875,0.7673875,-7.8550506,-2.9479501,5.4760504,-2.8875,17.400002,-3.35625
39.730458221024264,-1.4609375,-1.4595625,0.125675,-6.08295,-3.7699502,4.8630004,-2.8875,17.400002,-3.35625
39.78436657681941,-1.4609375,-1.4595625,0.125675,-7.5769506,-0.04305,7.8780003,-2.8875,17.400002,-3.35625
39.83827493261456,-0.115775,-0.842325,-1.1950125,-7.5769506,-0.04305,7.8780003,0.3,16.612501,0.84375006
39.892183288409704,1.3751374,-0.236775,-1.4579124,-6.4950004,-0.06195,8.34195,0.3,16.612501,0.84375006
39.946091644204856,1.3751374,-0.236775,-1.4579124,-7.8030005,0.29895002,9.23595,0.3,16.612501,0.84375006
40.0,0.0609125,-0.9381625,-0.93541247,-7.8030005,0.29895002,9.23595,0.3,16.612501,0.84375006
40.05390835579515,-0.7085375,-0.793375,0.5641625,-7.8030005,0.29895002,9.23595,5.7000003,17.75625,4.6125
40.107816711590296,-0.7085375,-0.793375,0.5641625,-5.89095,-1.81305,7.54995,5.7000003,17.75625,4.6125
40.16172506738545,0.2567125,-1.5978875,0.0160875,-5.89095,-1.81305,7.54995,5.7000003,17.75625,4.6125
40.2156334231806,0.061875,-2.28965,0.8652875,-5.60895,-1.7719501,9.505951,5.7000003,17.75625,4.6125
40.26954177897574,0.6716875,-3.7093375,0.451275,-1.57605,-1.9969501,11.443951,14.400001,20.04375,5.45625
40.323450134770894,0.6716875,-3.7093375,0.451275,-1.57605,-1.9969501,11.443951,14.400001,20.04375,5.45625
40.37735849056604,1.0208,-4.3883123,0.7205,1.9630501,-0.9580501,10.905001,14.400001,20.04375,5.45625
40.43126684636119,1.158025,-4.161575,0.2182125,1.9630501,-0.9580501,10.905001,21.1875,22.2,0.71250004
40.485175202156334,1.1314875,-3.4847999,0.682275,1.9630501,-0.9580501,10.905001,21.1875,22.2,0.71250004
40.539083557951486,1.1314875,-3.4847999,0.682275,6.5209503,-1.0680001,6.1249504,21.1875,22.2,0.71250004
40.59299191374663,1.1070125,-3.33685,-0.01265,6.5209503,-1.0680001,6.1249504,21.1875,22.2,0.71250004
40.64690026954178,0.93665,-3.4304874,-0.4915625,6.5209503,-1.0680001,6.1249504,22.3125,21.712502,-7.55625
40.70080862533693,0.93665,-3.4304874,-0.4915625,9.694051,0.66495,3.7080002,22.3125,21.712502,-7.55625
40.75471698113208,0.601425,-3.89125,-0.78429997,9.694051,0.66495,3.7080002,22.3125,21.712502,-7.55625
40.80862533692723,0.601425,-3.89125,-0.78429997,9.86205,0.40605003,0.21405001,22.3125,21.712502,-7.55625
40.86253369272237,0.194975,-5.0129747,0.3268375,9.86205,0.40605003,0.21405001,15.6,18.54375,-13.9125
40.916442048517524,0.0086625,-5.8942122,0.5768125,10.96395,0.39705002,-0.018,15.6,18.54375,-13.9125
40.97035040431267,0.0086625,-5.8942122,0.5768125,5.985,0.81600004,-6.0270004,15.6,18.54375,-13.9125
41.02425876010782,0.291775,-6.617875,0.6450125,5.985,0.81600004,-6.0270004,15.6,18.54375,-13.9125
41.078167115902964,0.87395,-7.006175,0.58753747,5.2660503,1.09905,-6.87195,7.55625,16.3125,-11.587501
41.132075471698116,0.87395,-7.006175,0.58753747,-3.8940003,0.9979501,-9.423,7.55625,16.3125,-11.587501
41.18598382749327,1.3836625,-6.11875,0.60775,-3.8940003,0.9979501,-9.423,7.55625,16.3125,-11.587501
41.23989218328841,2.010525,-5.23545,0.2193125,-8.713051,2.4799502,-7.4710503,5.5125003,15.4875,-7.6875005
41.29380053908356,2.010525,-5.23545,0.2193125,-9.481951,-1.33395,-2.15895,5.5125003,15.4875,-7.6875005
41.34770889487871,1.5538875,-5.2471375,-0.562925,-9.481951,-1.33395,-2.15895,5.5125003,15.4875,-7.6875005
41.40161725067386,0.4332625,-5.7633123,-0.86625,-11.211,-2.3370001,0.02205,5.5125003,15.4875,-7.6875005
41.455525606469,0.4332625,-5.7633123,-0.86625,-8.157001,0.18795002,6.5890503,5.1000004,15.843751,-8.1
41.509433962264154,-0.27335,-4.865025,0.715275,-8.157001,0.18795002,6.5890503,5.1000004,15.843751,-8.1
41.5633423180593,0.6589,-3.5050125,1.7901125,-9.655951,-0.90300006,6.4410005,5.1000004,15.843751,-8.1
41.61725067385445,-0.6670125,1.411575,3.3895125,-5.1610503,-0.57195,20.962051,5.1000004,15.843751,-8.1
41.6711590296496,0.34814999,-0.285725,0.7173375,-5.1610503,-0.57195,20.962051,4.4437504,14.45625,-10.9125
41.725067385444746,0.34814999,-0.285725,0.7173375,-3.42705,-2.8879502,11.082001,4.4437504,14.45625,-10.9125
41.7789757412399,0.5185125,-2.1428,1.4144624,-3.42705,-2.8879502,11.082001,4.4437504,14.45625,-10.9125
41.83288409703504,0.653675,-2.7654,1.5229499,-3.42705,-2.8879502,11.082001,4.3125,11.887501,-13.25625
41.88679245283019,0.653675,-2.7654,1.5229499,1.17795,1.8270001,10.555051,4.3125,11.887501,-13.25625
41.94070080862534,-0.3095125,-2.4897125,0.4598,1.17795,1.8270001,10.555051,4.3125,11.887501,-13.25625
41.99460916442049,-0.4723125,-2.9526749,-1.2695374,1.2780001,0.22200002,11.97105,4.3125,11.887501,-13.25625
42.04851752021563,-0.4723125,-2.9526749,-1.2695374,7.6159506,-0.53595,9.94005,4.14375,9.65625,-13.856251
42.102425876010784,-0.6276875,-4.1413627,-0.560725,7.6159506,-0.53595,9.94005,4.14375,9.65625,-13.856251
42.156334231805936,-0.7128,-3.9455624,0.7651875,8.547,-0.057,9.703051,4.14375,9.65625,-13.856251
42.21024258760108,-0.7128,-3.9455624,0.7651875,8.142,-2.3470502,3.2290502,3.6562502,9.6,-13.312501
42.26415094339623,-2.0356874,-3.739175,0.6843375,8.142,-2.3470502,3.2290502,3.6562502,9.6,-13.312501
42.318059299191376,-1.848275,-4.8470125,-0.7118375,8.65995,3.2040002,0.46005002,3.6562502,9.6,-13.312501
42.37196765498653,0.51425,-4.146725,-2.1124125,8.65995,3.2040002,0.46005002,3.6562502,9.6,-13.312501
42.42587601078167,0.51425,-4.146725,-2.1124125,7.6660504,-0.09795,-3.4620001,3.6562502,10.9875,-11.512501
42.47978436657682,0.471625,-4.6011624,-1.38765,7.6660504,-0.09795,-3.4620001,3.6562502,10.9875,-11.512501
42.53369272237197,1.00155,-4.6799498,0.6578,7.5049505,-1.7740501,-6.7309504,3.6562502,10.9875,-11.512501
42.58760107816712,1.3805,-4.4308,1.507,0.795,2.8570502,-9.09,3.9,11.212501,-11.512501
42.64150943396227,1.3762375,-4.031775,0.8237625,0.795,2.8570502,-9.09,3.9,11.212501,-11.512501
42.695417789757414,1.3762375,-4.031775,0.8237625,-1.8319501,-0.77805007,-10.564951,3.9,11.212501,-11.512501
42.749326145552565,2.01575,-3.7646124,-0.80025,-1.8319501,-0.77805007,-10.564951,3.9,11.212501,-11.512501
42.80323450134771,2.008325,-3.0793126,1.32825,-1.8319501,-0.77805007,-10.564951,1.9125,12.0,-11.043751
42.85714285714286,2.008325,-3.0793126,1.32825,-9.927,-4.2720003,-3.9810002,1.9125,12.0,-11.043751
42.911051212938006,-0.099825,-3.817825,1.2101375,-9.927,-4.2720003,-3.9810002,1.9125,12.0,-11.043751
42.96495956873316,-1.15665,-3.9626124,1.401675,-9.927,-4.2720003,-3.9810002,1.3875,11.8125,-7.74375
43.0188679245283,-1.15665,-3.9626124,1.401675,-9.802051,-0.924,4.3039503,1.3875,11.8125,-7.74375
43.07277628032345,-0.90543747,-1.1424875,1.1398749,-9.802051,-0.924,4.3039503,1.3875,11.8125,-7.74375
43.126684636118604,-0.04125,-0.1868625,1.169575,-8.98095,-2.127,3.7680001,1.3875,11.8125,-7.74375
43.18059299191375,0.7068875,-0.743325,0.5236,-9.319051,1.89795,5.1160502,3.24375,11.1,-2.7
43.2345013477089,0.7068875,-0.743325,0.5236,-9.319051,1.89795,5.1160502,3.24375,11.1,-2.7
43.288409703504044,0.0661375,-2.3397,0.417175,-9.031051,1.5510001,4.257,3.24375,11.1,-2.7
43.342318059299195,-0.8448,-4.013625,0.70675,-9.031051,1.5510001,4.257,4.6875,11.400001,0.95625
43.39622641509434,-1.099175,-3.30495,0.47795,-9.031051,1.5510001,4.257,4.6875,11.400001,0.95625
43.45013477088949,-1.099175,-3.30495,0.47795,-2.5549502,3.7519503,10.672951,4.6875,11.400001,0.95625
43.504043126684635,-2.0260625,-2.641925,-0.31707498,-2.5549502,3.7519503,10.672951,4.6875,11.400001,0.95625
43.55795148247979,-2.994475,-1.8203624,-0.153175,-2.5549502,3.7519503,10.672951,7.6875005,12.656251,3.05625
43.61185983827494,-2.994475,-1.8203624,-0.153175,0.06195,-0.27495003,8.7949505,7.6875005,12.656251,3.05625
43.66576819407008,-2.0846374,-2.005575,-0.5225,0.06195,-0.27495003,8.7949505,7.6875005,12.656251,3.05625
43.719676549865234,-2.0846374,-2.005575,-0.5225,4.4160004,-3.2070003,6.867,7.6875005,12.656251,3.05625
43.77358490566038,-0.9108,-2.6780875,-0.4010875,4.4160004,-3.2070003,6.867,13.14375,15.243751,3.9
43.82749326145553,0.8558,-3.3911624,0.908875,5.9170504,-3.4680002,10.960051,13.14375,15.243751,3.9
43.881401617250674,0.8558,-3.3911624,0.908875,5.7790504,-0.95100003,9.736051,13.14375,15.243751,3.9
43.935309973045825,2.0796876,-3.166625,-0.3884375,5.7790504,-0.95100003,9.736051,17.8125,16.9125,-0.7875
43.98921832884097,2.3329625,-2.1769,-1.6229125,5.2540503,-3.9589503,9.550051,17.8125,16.9125,-0.7875
44.04312668463612,1.6380374,-2.1055374,-0.9194625,10.255051,-2.7469501,8.11005,17.8125,16.9125,-0.7875
44.09703504043127,-0.00935,-2.4822874,-0.9332125,10.255051,-2.7469501,8.11005,17.8125,16.9125,-0.7875
44.15094339622642,-0.00935,-2.4822874,-0.9332125,9.27495,-0.23205002,1.3609501,18.056252,17.2875,-9.84375
44.20485175202157,-0.411675,-2.215125,-1.9613,9.27495,-0.23205002,1.3609501,18.056252,17.2875,-9.84375
44.25876010781671,-0.623425,-2.2737,-0.1073875,8.844001,1.02195,1.11195,18.056252,17.2875,-9.84375
44.312668463611864,-0.623425,-2.2737,-0.1073875,10.51305,4.32,-1.9530001,12.0,14.887501,-17.34375
44.36657681940701,0.6622,-1.8183,1.3803625,10.51305,4.32,-1.9530001,12.0,14.887501,-17.34375
44.42048517520216,0.6622,-1.8183,1.3803625,10.011001,7.1680503,-4.5270004,12.0,14.887501,-17.34375
44.474393530997304,-0.9128625,-3.1208375,-0.400125,13.96695,1.44105,-1.4809501,12.0,14.887501,-17.34375
44.528301886792455,-0.6447375,-3.46775,0.9120375,13.96695,1.44105,-1.4809501,2.5125,13.687501,-21.056252
44.58221024258761,-0.6447375,-3.46775,0.9120375,12.967951,0.33495003,-2.52495,2.5125,13.687501,-21.056252
44.63611859838275,0.97185,-4.0178876,0.4714875,7.2850504,1.6639501,-6.0270004,2.5125,13.687501,-21.056252
44.6900269541779,1.287825,-6.2910376,1.1026125,7.2850504,1.6639501,-6.0270004,2.5125,13.687501,-21.056252
44.74393530997305,1.287825,-6.2910376,1.1026125,7.2850504,1.6639501,-6.0270004,-7.3125005,13.9875,-19.25625
44.7978436657682,1.3250875,-9.380525,0.1766875,9.10005,-0.46905002,-10.92195,-7.3125005,13.9875,-19.25625
44.85175202156334,1.62305,-9.643288,0.0947375,9.10005,-0.46905002,-10.92195,-7.3125005,13.9875,-19.25625
44.905660377358494,0.701525,-8.147013,0.616275,6.1470003,-3.31695,-11.734051,-7.3125005,13.9875,-19.25625
44.95956873315364,1.0058125,-7.0360126,0.6694875,-7.1059504,-2.3130002,6.76695,-10.5,15.712501,-14.1
45.01347708894879,1.0058125,-7.0360126,0.6694875,-7.1059504,-2.3130002,6.76695,-10.5,15.712501,-14.1
45.06738544474394,1.3794,-6.9040127,0.2011625,-1.5370501,2.5519502,9.933001,-10.5,15.712501,-14.1
45.121293800539085,1.3794,-6.9040127,0.2011625,-1.5370501,2.5519502,9.933001,-10.8,17.400002,-13.14375
45.17520215633424,1.2038125,-6.928625,2.6382124,2.265,-1.3240501,10.941001,-10.8,17.400002,-13.14375
45.22911051212938,1.1144375,-6.93605,0.157575,2.265,-1.3240501,10.941001,-10.8,17.400002,-13.14375
45.28301886792453,1.1144375,-6.93605,0.157575,3.14895,0.02805,11.632951,-10.8,17.400002,-13.14375
45.33692722371968,0.7951625,-7.3211875,-0.2149125,5.5870504,-0.49605003,11.775001,-15.356251,15.843751,-14.156251
45.39083557951483,-0.30305,-7.8788877,-0.579975,5.5870504,-0.49605003,11.775001,-15.356251,15.843751,-14.156251
45.44474393530997,-0.30305,-7.8788877,-0.579975,11.625001,0.057,7.3339505,-15.356251,15.843751,-14.156251
45.498652291105124,-0.4393125,-8.527062,-0.1744875,7.83795,-1.5949501,-4.65,-15.356251,15.843751,-14.156251
45.552560646900275,2.0530124,-7.9864125,-0.414975,7.83795,-1.5949501,-4.65,-19.743752,13.9125,-7.3875003
45.60646900269542,0.8558,-7.78305,-1.078,7.7539506,-1.9420501,-6.477,-19.743752,13.9125,-7.3875003
45.66037735849057,0.8558,-7.78305,-1.078,0.73005,3.21795,-14.404051,-19.743752,13.9125,-7.3875003
45.714285714285715,2.0956376,-8.249175,0.5853375,0.73005,3.21795,-14.404051,-14.1,14.2875,2.15625
45.76819407008087,1.0069125,-6.9295874,-0.0669625,0.22395001,1.8550501,-13.069951,-14.1,14.2875,2.15625
45.82210242587601,-0.3872,-0.1590875,2.63285,3.86295,-0.13095,11.31,-14.1,14.2875,2.15625
45.87601078167116,-0.3872,-0.1590875,2.63285,3.86295,-0.13095,11.31,-14.1,14.2875,2.15625
45.92991913746631,1.5901875,-0.0537625,0.270325,3.86295,-0.13095,11.31,-4.9125004,16.5,1.9875001
45.98382749326146,0.6950625,-3.56455,0.9196,3.82695,-2.1739502,14.22,-4.9125004,16.5,1.9875001
46.03773584905661,0.6950625,-3.56455,0.9196,3.82695,-2.1739502,14.22,-4.9125004,16.5,1.9875001
46.091644204851754,-0.032725,-2.904825,-0.1659625,2.08095,2.11395,18.339,-4.9125004,16.5,1.9875001
46.145552560646905,-0.032725,-2.904825,-0.1659625,2.08095,2.11395,18.339,3.1125002,16.800001,-1.85625
46.19946091644205,-1.4333,-2.528075,-0.07865,2.08095,2.11395,18.339,3.1125002,16.800001,-1.85625
46.2533692722372,0.44825,-2.0502625,1.309,3.0630002,1.3069501,10.951051,3.1125002,16.800001,-1.85625
46.307277628032345,0.637725,-1.2414875,-0.74387497,3.0630002,1.3069501,10.951051,7.2000003,15.712501,-10.556251
46.3611859838275,0.0746625,2.051225,-0.27981248,3.0630002,1.3069501,10.951051,7.2000003,15.712501,-10.556251
46.41509433962264,0.0746625,2.051225,-0.27981248,4.34205,1.36395,9.159,7.2000003,15.712501,-10.556251
46.46900269541779,-0.49568748,2.8824124,-1.74955,4.47795,0.45705003,1.2409501,7.2000003,15.712501,-10.556251
46.522911051212944,-0.49568748,2.8824124,-1.74955,4.47795,0.45705003,1.2409501,2.34375,14.1,-19.743752
46.57681940700809,0.41305,-0.4709375,-0.01595,8.776951,-2.043,0.45600003,2.34375,14.1,-19.743752
46.63072776280324,0.38225,-1.5607625,0.615175,8.776951,-2.043,0.45600003,2.34375,14.1,-19.743752
46.684636118598384,0.38225,-1.5607625,0.615175,8.39595,2.35395,7.9069505,2.34375,14.1,-19.743752
46.738544474393535,-0.79048747,-0.82005,0.34375,8.39595,2.35395,7.9069505,-2.5125,12.056251,-22.800001
46.79245283018868,-1.0693375,0.0111375,0.31501248,10.04895,4.0420504,8.39505,-2.5125,12.056251,-22.800001
46.84636118598383,-1.0693375,0.0111375,0.31501248,10.03905,2.3080502,6.33795,-2.5125,12.056251,-22.800001
46.900269541778975,-0.723525,1.3275625,0.3650625,10.03905,2.3080502,6.33795,-2.5125,12.056251,-22.800001
46.95417789757413,0.38541248,1.6064125,-0.3554375,10.03905,2.3080502,6.33795,-2.5125,11.043751,-23.5125
47.00808625336928,0.38541248,1.6064125,-0.3554375,5.1919503,1.25205,3.37995,-2.5125,11.043751,-23.5125
47.06199460916442,0.3524125,-0.191125,0.2022625,5.1919503,1.25205,3.37995,-2.5125,11.043751,-23.5125
47.115902964959574,0.2365,-4.466,2.1572375,5.1919503,1.25205,3.37995,1.0875001,12.056251,-30.956251
47.16981132075472,0.2365,-4.466,2.1572375,8.311951,1.2760501,8.637,1.0875001,12.056251,-30.956251
47.22371967654987,-1.0841875,-8.313112,1.4878875,8.311951,1.2760501,8.637,1.0875001,12.056251,-30.956251
47.277628032345014,-2.061125,-5.665275,4.3835,9.316051,0.86595005,9.328951,1.0875001,12.056251,-30.956251
47.331536388140165,-2.061125,-5.665275,4.3835,12.98505,-1.91805,10.29405,-3.6000001,12.4125,-40.6875
47.38544474393531,-0.37015,-1.741575,2.8468,12.98505,-1.91805,10.29405,-3.6000001,12.4125,-40.6875
47.43935309973046,-1.74185,-2.0565875,-0.86625,13.36095,-1.6710001,9.942,-3.6000001,12.4125,-40.6875
47.49326145552561,-1.74185,-2.0565875,-0.86625,-1.54005,1.47,-3.34905,-3.6000001,12.4125,-40.6875
47.54716981132076,0.12045,1.0401875,-1.0333124,-1.54005,1.47,-3.34905,-11.212501,13.9875,-37.0125
47.60107816711591,0.31625,1.004025,0.1203125,0.37305,1.3399501,-3.24795,-11.212501,13.9875,-37.0125
47.65498652291105,0.31625,1.004025,0.1203125,3.6799502,-3.489,-6.77895,-11.212501,13.9875,-37.0125
47.708894878706204,0.21945,0.857175,-0.170225,3.6799502,-3.489,-6.77895,-11.212501,13.9875,-37.0125
47.76280323450135,0.5515125,1.5063125,-0.3532375,3.6799502,-3.489,-6.77895,-17.400002,15.843751,-29.94375
47.8167115902965,0.5515125,1.5063125,-0.3532375,0.36600003,-2.43495,-8.014951,-17.400002,15.843751,-29.94375
47.870619946091644,0.2129875,0.5358375,0.304425,0.36600003,-2.43495,-8.014951,-17.400002,15.843751,-29.94375
47.924528301886795,0.1480875,-0.1815,-0.726825,3.7810502,-3.3340502,-7.083,-17.400002,15.843751,-29.94375
47.97843665768195,-1.1831875,-2.4355376,-4.5898876,5.9820004,-2.7919502,-6.97305,-20.7,18.900002,-23.04375
48.03234501347709,-1.1831875,-2.4355376,-4.5898876,5.9820004,-2.7919502,-6.97305,-20.7,18.900002,-23.04375
48.08625336927224,0.4673625,-2.6536124,-2.1613624,7.0960503,-2.88105,-6.8770504,-20.7,18.900002,-23.04375
48.14016172506739,0.6664625,-1.66925,0.29273748,7.7590504,-3.9520502,-6.7500005,-21.956251,21.243752,-17.587502
48.19407008086254,0.6664625,-1.66925,0.29273748,7.86705,-5.7910504,-5.7130504,-21.956251,21.243752,-17.587502
48.24797843665768,1.2123375,-2.136475,1.840025,7.86705,-5.7910504,-5.7130504,-21.956251,21.243752,-17.587502
48.301886792452834,0.77275,-5.0747123,-0.088275,7.0650005,-6.129,-5.5189505,-21.956251,21.243752,-17.587502
48.35579514824798,0.77275,-5.0747123,-0.088275,0.85695004,-0.033,-9.715051,-25.312502,21.0,-8.887501
48.40970350404313,0.800525,-7.500075,0.1023,0.85695004,-0.033,-9.715051,-25.312502,21.0,-8.887501
48.46361185983828,1.0473375,-7.9651,-0.17765,1.5970501,-0.59595,-10.2630005,-25.312502,21.0,-8.887501
48.517520215633425,1.0473375,-7.9651,-0.17765,2.433,-2.697,-9.696,-24.7875,21.900002,1.25625
48.57142857142858,1.3783,-7.1808,0.0127875,2.433,-2.697,-9.696,-24.7875,21.900002,1.25625
48.62533692722372,1.0825375,-5.4663124,-3.4522126,1.16295,-2.3400002,-9.315001,-24.7875,21.900002,1.25625
48.67924528301887,1.0825375,-5.4663124,-3.4522126,-3.8149502,-3.6400502,0.72405005,-24.7875,21.900002,1.25625
48.73315363881402,-1.5428874,1.265825,-0.14465,-3.8149502,-3.6400502,0.72405005,-19.44375,22.5,9.1125
48.78706199460917,-1.4876125,3.4911249,1.0206625,-1.7260501,-3.3790503,2.3809502,-19.44375,22.5,9.1125
48.84097035040431,-1.4876125,3.4911249,1.0206625,-6.12405,0.07605001,9.20505,-19.44375,22.5,9.1125
48.894878706199464,0.0587125,-0.142175,2.27315,-6.12405,0.07605001,9.20505,-19.44375,22.5,9.1125
48.948787061994615,0.307725,-4.3234124,2.24235,-6.12405,0.07605001,9.20505,-14.212501,25.44375,13.387501
49.00269541778976,-0.117975,-6.27935,1.9262375,-7.3279505,-5.1130505,9.23595,-14.212501,25.44375,13.387501
49.05660377358491,-0.117975,-6.27935,1.9262375,-7.3279505,-5.1130505,9.23595,-14.212501,25.44375,13.387501
49.110512129380055,-0.45319998,-5.8419623,0.7577625,-6.37305,-4.821,10.927051,-14.212501,25.44375,13.387501
49.16442048517521,-0.45319998,-5.8419623,0.7577625,-6.0730505,-3.2710502,6.54405,-5.8875003,24.656252,12.712501
49.21832884097035,-0.95645,-5.1577625,0.1139875,-6.0730505,-3.2710502,6.54405,-5.8875003,24.656252,12.712501
49.2722371967655,-0.3829375,-6.075025,-0.35433748,2.0059502,-3.11595,10.761001,-5.8875003,24.656252,12.712501
49.32614555256065,-0.247775,-6.8210998,-0.578875,2.0059502,-3.11595,10.761001,0.1125,23.1,6.05625
49.3800539083558,-1.3981,-6.2943373,0.0149875,2.0059502,-3.11595,10.761001,0.1125,23.1,6.05625
49.43396226415095,-1.3981,-6.2943373,0.0149875,2.7180002,-3.18495,11.36505,0.1125,23.1,6.05625
49.487870619946094,0.1045,-1.3223375,0.9631875,10.056001,-2.6920502,8.4529505,0.1125,23.1,6.05625
49.541778975741245,0.1045,-1.3223375,0.9631875,10.056001,-2.6920502,8.4529505,0.41250002,22.0125,1.44375
49.59568733153639,-1.4854125,-2.249225,0.466125,9.41205,-2.16,4.4220004,0.41250002,22.0125,1.44375
49.64959568733154,-0.573375,-0.383625,-0.9246875,9.41205,-2.16,4.4220004,0.41250002,22.0125,1.44375
49.703504043126685,-0.573375,-0.383625,-0.9246875,2.6820002,-1.473,-12.474001,0.41250002,22.0125,1.44375
49.757412398921836,-0.395725,-0.5836875,-1.1864874,2.6820002,-1.473,-12.474001,-0.05625,21.300001,1.7437501
49.81132075471698,-0.3243625,-0.1612875,0.2011625,2.8140001,-4.0690503,-9.3490505,-0.05625,21.300001,1.7437501
49.86522911051213,0.18645,0.2462625,-0.2490125,1.695,-2.94105,-8.698951,-0.05625,21.300001,1.7437501
49.91913746630728,-1.4386625,-2.52065,0.1362625,1.695,-2.94105,-8.698951,-0.05625,21.300001,1.7437501
49.97304582210243,-1.4386625,-2.52065,0.1362625,1.695,-2.94105,-8.698951,-0.24375,22.3125,1.1437501
50.02695417789758,0.0917125,-5.945225,0.0138875,4.68195,-1.4610001,-6.807,-0.24375,22.3125,1.1437501
50.080862533692724,0.528,-6.2325997,-0.3298625,4.68195,-1.4610001,-6.807,-0.24375,22.3125,1.1437501
50.134770889487875,1.1176,-6.6050873,-0.953425,4.806,-0.59400004,-9.150001,-3.1125002,21.84375,-0.95625
50.18867924528302,1.1176,-6.6050873,-0.953425,4.806,-0.59400004,-9.150001,-3.1125002,21.84375,-0.95625
50.24258760107817,0.858,-6.3848124,-1.177,5.5410004,1.7310001,-7.5520506,-3.1125002,21.84375,-0.95625
50.296495956873315,-0.0210375,-4.64585,-1.051325,-2.89995,1.9420501,-5.5669503,-7.4437504,20.400002,1.7437501
50.350404312668466,-0.0732875,-2.7429874,-0.4373875,-2.89995,1.9420501,-5.5669503,-7.4437504,20.400002,1.7437501
50.40431266846362,-0.0732875,-2.7429874,-0.4373875,-10.224001,-1.8919501,2.8990502,-7.4437504,20.400002,1.7437501
50.45822102425876,-0.067925,-1.023275,-0.43835,-10.224001,-1.8919501,2.8990502,-6.1875005,18.65625,4.6125
50.51212938005391,-0.2924625,-1.4245,-0.498025,-10.224001,-1.8919501,2.8990502,-6.1875005,18.65625,4.6125
50.56603773584906,-0.2924625,-1.4245,-0.498025,-9.42195,-2.7160501,5.20695,-6.1875005,18.65625,4.6125
50.61994609164421,1.2687125,-3.7444,0.713075,-9.42195,-2.7160501,5.20695,-6.1875005,18.65625,4.6125
50.67385444743935,0.3364625,-5.95485,3.0416374,-9.42195,-2.7160501,5.20695,-6.6000004,19.44375,4.0875
50.727762803234505,1.1378125,-4.145625,3.0096,-6.4690504,-4.368,8.32995,-6.6000004,19.44375,4.0875
50.78167115902965,0.9750125,-1.4553,0.1309,-6.4690504,-4.368,8.32995,-6.6000004,19.44375,4.0875
50.8355795148248,0.9750125,-1.4553,0.1309,-6.4690504,-4.368,8.32995,-5.34375,20.94375,5.9437504
50.88948787061995,-0.2435125,-2.19395,0.2671625,0.07395,-1.6879501,10.596001,-5.34375,20.94375,5.9437504
50.943396226415096,-0.2435125,-2.19395,0.2671625,0.07395,-1.6879501,10.596001,-5.34375,20.94375,5.9437504
50.99730458221025,-1.3162875,-3.952025,-0.4203375,1.8169501,-2.0689502,8.73795,-5.34375,20.94375,5.9437504
51.05121293800539,-0.5201625,-5.2619877,-0.94063747,1.8169501,-2.0689502,8.73795,-0.35625002,20.1,4.2000003
51.10512129380054,-0.5201625,-5.2619877,-0.94063747,7.6920004,-1.8010501,8.625,-0.35625002,20.1,4.2000003
51.15902964959569,-0.1104125,-0.8699625,-1.25675,7.6920004,-1.8010501,8.625,-0.35625002,20.1,4.2000003
51.21293800539084,-0.084975,-4.0275126,-0.677875,7.2949505,-2.8159502,8.788051,-0.35625002,20.1,4.2000003
51.26684636118598,-0.084975,-4.0275126,-0.677875,9.342,-1.6980001,6.453,2.2125,19.85625,-1.44375
51.320754716981135,-0.2902625,-3.4464376,0.2299,9.342,-1.6980001,6.453,2.2125,19.85625,-1.44375
51.374663072776286,0.0704,-3.247475,0.7535,9.571951,-2.6749501,5.5399504,2.2125,19.85625,-1.44375
51.42857142857143,0.0704,-3.247475,0.7535,10.885051,0.63405,-1.1359501,1.7437501,19.5,-6.24375
51.48247978436658,0.0768625,-4.67775,1.3803625,10.885051,0.63405,-1.1359501,1.7437501,19.5,-6.24375
51.536388140161726,-0.328625,-5.4025126,1.136575,10.564051,1.82895,-3.1360502,1.7437501,19.5,-6.24375
51.59029649595688,-0.328625,-5.4025126,1.136575,8.392051,0.01605,-3.56205,1.7437501,19.5,-6.24375
51.64420485175202,0.8558,-6.4890375,-0.2564375,8.392051,0.01605,-3.56205,1.9125,19.743752,-7.0875
51.69811320754717,1.6795624,-6.075025,0.3289,7.63005,0.34695002,-3.55995,1.9125,19.743752,-7.0875
51.75202156334232,1.6795624,-6.075025,0.3289,5.28795,-0.591,-7.0609503,1.9125,19.743752,-7.0875
51.80592991913747,1.03675,-4.6638627,-0.397925,5.28795,-0.591,-7.0609503,1.9125,19.743752,-7.0875
51.85983827493262,0.243925,-3.637975,-0.1628,5.28795,-0.591,-7.0609503,2.1000001,20.7,-7.3875003
51.913746630727765,0.243925,-3.637975,-0.1628,-13.678051,-0.27795002,-1.6129501,2.1000001,20.7,-7.3875003
51.967654986522916,-0.5808,-0.907225,0.4002625,-13.678051,-0.27795002,-1.6129501,2.1000001,20.7,-7.3875003
52.02156334231806,-1.1735625,-0.6092625,0.31405,-12.40095,-1.2739501,-3.00705,2.1000001,20.7,-7.3875003
52.07547169811321,-1.1735625,-0.6092625,0.31405,-12.954,-2.8330503,1.2750001,1.3875,21.35625,-7.14375
52.129380053908356,-1.0426625,-2.1396375,-0.7396125,-12.954,-2.8330503,1.2750001,1.3875,21.35625,-7.14375
52.18328840970351,-0.99165,-3.4901624,-0.348975,-14.884951,-3.0559502,2.0029502,1.3875,21.35625,-7.14375
52.23719676549865,-0.24887499,-4.9853373,0.9046125,-9.02595,-3.4339502,0.66405004,1.3875,21.35625,-7.14375
52.2911051212938,-0.50105,-5.2608876,1.9347625,-9.02595,-3.4339502,0.66405004,1.25625,20.8875,-4.8562503
52.345013477088955,-0.50105,-5.2608876,1.9347625,-7.1299505,-0.79695004,3.66,1.25625,20.8875,-4.8562503
52.3989218328841,0.5333625,-4.6000624,1.0855625,-10.33395,-2.7880502,2.80305,1.25625,20.8875,-4.8562503
52.45283018867925,-0.0402875,-4.3126874,0.099,-10.33395,-2.7880502,2.80305,1.9125,20.587502,-2.2875001
52.506738544474395,0.4024625,-3.6933875,-0.11055,-3.51795,-3.1560001,8.58405,1.9125,20.587502,-2.2875001
52.560646900269546,0.4024625,-3.6933875,-0.11055,-3.51795,-3.1560001,8.58405,1.9125,20.587502,-2.2875001
52.61455525606469,-0.4829,-4.6267376,-2.0389874,0.36600003,-2.079,6.07905,1.9125,20.587502,-2.2875001
52.66846361185984,-0.0221375,-4.604325,-1.5142875,0.36600003,-2.079,6.07905,3.0,21.243752,-1.3125
52.722371967654986,-0.0221375,-4.604325,-1.5142875,6.36105,-4.14795,8.78295,3.0,21.243752,-1.3125
52.77628032345014,-0.328625,-5.162025,-0.2479125,6.36105,-4.14795,8.78295,3.0,21.243752,-1.3125
52.83018867924529,-0.9362375,-5.0587626,0.599225,6.36105,-4.14795,8.78295,3.4125001,21.6,-1.3875
52.88409703504043,-0.9362375,-5.0587626,0.599225,11.16495,-3.6349502,4.302,3.4125001,21.6,-1.3875
52.938005390835585,-1.4598374,-4.1009374,0.140525,11.16495,-3.6349502,4.302,3.4125001,21.6,-1.3875
52.99191374663073,-1.2343374,-4.1487875,-0.0914375,11.16495,-3.6349502,4.302,3.1875002,22.0125,0.24375
53.04582210242588,-1.2343374,-4.1487875,-0.0914375,11.095051,0.23595001,-6.6010504,3.1875002,22.0125,0.24375
53.099730458221025,-0.0614625,-5.1002874,0.008525,11.095051,0.23595001,-6.6010504,3.1875002,22.0125,0.24375
53.153638814016176,0.3779875,-5.0226,-0.08085,10.69995,1.1730001,-5.7630005,3.1875002,22.0125,0.24375
53.20754716981132,0.3779875,-5.0226,-0.08085,6.5659504,0.651,-5.1330004,3.7875001,21.300001,1.9125
53.26145552560647,0.554675,-5.306675,-0.203225,6.5659504,0.651,-5.1330004,3.7875001,21.300001,1.9125
53.31536388140162,0.35035,-4.931025,-0.0776875,4.914,1.5150001,-5.05695,3.7875001,21.300001,1.9125
53.36927223719677,0.35035,-4.931025,-0.0776875,-2.90505,1.83105,-5.24595,3.7875001,21.300001,1.9125
53.42318059299192,0.2311375,-4.0423627,-0.577775,-2.90505,1.83105,-5.24595,4.4437504,20.1,2.5125
53.47708894878706,-0.95865,-3.7274876,-0.367125,-3.90105,1.7569501,-4.42395,4.4437504,20.1,2.5125
53.530997304582215,-0.95865,-3.7274876,-0.367125,-9.15795,1.0030501,0.86295,4.4437504,20.1,2.5125
53.58490566037736,-0.541475,-1.9905875,-0.99495,-9.15795,1.0030501,0.86295,4.4437504,20.1,2.5125
53.63881401617251,-1.7941,-0.7062,0.402325,-9.15795,1.0030501,0.86295,5.4,18.056252,2.8125
53.692722371967655,-0.9097,-1.6192,-1.1556875,-9.58695,-1.2379501,3.5689502,5.4,18.056252,2.8125
53.746630727762806,-0.9097,-1.6192,-1.1556875,-9.58695,-1.2379501,3.5689502,5.4,18.056252,2.8125
53.80053908355796,0.7206375,-1.1435875,-0.480975,-9.58695,-1.2379501,3.5689502,6.3562503,17.34375,0.90000004
53.8544474393531,-0.279675,-1.8385125,0.2118875,-8.839951,-2.7280502,6.0550504,6.3562503,17.34375,0.90000004
53.90835579514825,-0.279675,-1.8385125,0.2118875,-8.839951,-2.7280502,6.0550504,6.3562503,17.34375,0.90000004
53.9622641509434,-0.8138625,-5.318362,0.5534375,-9.43095,-3.0649502,9.868051,6.3562503,17.34375,0.90000004
54.01617250673855,0.081125,-5.3343124,-0.6565625,-9.43095,-3.0649502,9.868051,6.6000004,17.2875,-0.05625
54.07008086253369,0.081125,-5.3343124,-0.6565625,-9.43095,-3.0649502,9.868051,6.6000004,17.2875,-0.05625
54.123989218328845,1.225125,-4.4862123,-0.593725,-3.0370502,-4.72305,6.4429502,6.6000004,17.2875,-0.05625
54.17789757412399,2.0871124,-4.4202123,-1.2673374,-3.66405,-1.149,4.7070003,6.6000004,17.2875,-0.05625
54.23180592991914,0.5344625,-4.3159876,-0.970475,0.33900002,-3.7099502,10.72605,6.9,17.94375,0.54375005
54.28571428571429,0.359975,-4.7628627,-1.2843875,0.33900002,-3.7099502,10.72605,6.9,17.94375,0.54375005
54.339622641509436,0.359975,-4.7628627,-1.2843875,2.2669501,-4.38,10.00695,6.9,17.94375,0.54375005
54.39353099730459,0.6568375,-5.00335,-0.11385,6.5500503,-1.161,3.4249501,6.4875,17.212502,0.6
54.44743935309973,0.276925,-2.4088626,0.4310625,6.5500503,-1.161,3.4249501,6.4875,17.212502,0.6
54.50134770889488,0.276925,-2.4088626,0.4310625,10.305,-0.58905005,2.364,6.4875,17.212502,0.6
54.55525606469003,0.3683625,-3.7156625,1.0802,10.305,-0.58905005,2.364,6.4875,17.212502,0.6
54.60916442048518,0.4195125,-6.2656,1.5719,10.305,-0.58905005,2.364,6.3,15.900001,0.4875
54.66307277628032,0.4195125,-6.2656,1.5719,8.578051,1.3879501,-7.8799505,6.3,15.900001,0.4875
54.716981132075475,-0.0699875,-7.6905127,0.990825,8.578051,1.3879501,-7.8799505,6.3,15.900001,0.4875
54.770889487870626,0.97185,-7.1924872,-0.1904375,8.578051,1.3879501,-7.8799505,5.5125003,15.712501,-0.24375
54.82479784366577,0.97185,-7.1924872,-0.1904375,3.3430502,0.56700003,-7.6500006,5.5125003,15.712501,-0.24375
54.87870619946092,1.305975,-6.0229125,-0.57035,3.3430502,0.56700003,-7.6500006,5.5125003,15.712501,-0.24375
54.932614555256066,0.44715,-4.6426873,0.0862125,2.60505,0.87795,-7.9470005,5.5125003,15.712501,-0.24375
54.98652291105122,0.44715,-4.6426873,0.0862125,-7.3360505,1.281,-0.49905002,6.9,16.44375,-0.84375006
55.04043126684636,0.4525125,-2.283325,0.7992875,-7.3360505,1.281,-0.49905002,6.9,16.44375,-0.84375006
55.09433962264151,0.193875,-1.80015,0.7247625,-8.443951,0.924,1.0350001,6.9,16.44375,-0.84375006
55.14824797843666,0.193875,-1.80015,0.7247625,-15.574051,-3.1590002,2.66895,6.9,16.44375,-0.84375006
55.20215633423181,-0.3180375,-4.0084,1.3080375,-15.574051,-3.1590002,2.66895,7.2562504,17.5125,-3.3000002
55.25606469002696,-1.1044,-5.03855,2.0092876,-11.989051,-3.1350002,2.83605,7.2562504,17.5125,-3.3000002
55.309973045822105,-1.1044,-5.03855,2.0092876,-6.852,1.6849501,8.977051,7.2562504,17.5125,-3.3000002
55.363881401617256,0.02145,-4.12225,1.2824625,-6.852,1.6849501,8.977051,6.7125,16.800001,-5.7000003
55.4177897574124,1.1303875,-3.3804374,0.1533125,-5.29005,0.90900004,9.691051,6.7125,16.800001,-5.7000003
55.47169811320755,1.1303875,-3.3804374,0.1533125,0.43800002,3.039,10.201051,6.7125,16.800001,-5.7000003
55.525606469002696,1.7732,-3.7807,-0.121275,0.43800002,3.039,10.201051,6.7125,16.800001,-5.7000003
55.57951482479785,1.6550875,-4.0998373,-0.0328625,0.43800002,3.039,10.201051,3.7125,15.243751,-9.900001
55.63342318059299,-0.9299125,-2.3513875,1.1408376,4.926,-0.38505003,7.0320005,3.7125,15.243751,-9.900001
55.68733153638814,-0.9299125,-2.3513875,1.1408376,4.926,-0.38505003,7.0320005,3.7125,15.243751,-9.900001
55.741239892183295,-0.2902625,-1.0179125,0.8823375,5.58195,-0.39000002,5.5279503,3.7125,15.243751,-9.900001
55.79514824797844,-0.7233875,-3.0687249,0.4598,7.8,1.4389501,7.38705,-1.9875001,11.8125,-11.700001
55.84905660377359,-0.7233875,-3.0687249,0.4598,7.8,1.4389501,7.38705,-1.9875001,11.8125,-11.700001
55.902964959568735,-0.556325,-1.858725,0.8897625,11.661,-0.09795,-1.023,-1.9875001,11.8125,-11.700001
55.956873315363886,-0.442475,-2.316325,-0.2138125,11.661,-0.09795,-1.023,-4.2562504,10.3125,-10.5
56.01078167115903,-0.442475,-2.316325,-0.2138125,11.661,-0.09795,-1.023,-4.2562504,10.3125,-10.5
56.06469002695418,-0.1200375,-2.2290125,0.320375,8.538,-0.01695,0.3,-4.2562504,10.3125,-10.5
56.118598382749326,-0.7011125,-2.6356,1.1600875,8.059051,-0.29205,-0.48495004,-4.2562504,10.3125,-10.5
56.17250673854448,-0.7011125,-2.6356,1.1600875,7.76205,-3.3930001,-4.5679502,-4.2562504,10.856251,-10.3125
56.22641509433963,-0.262625,-3.92755,0.3906375,7.76205,-3.3930001,-4.5679502,-4.2562504,10.856251,-10.3125
56.28032345013477,-0.0551375,-6.0548124,1.137675,9.031051,1.2060001,-1.3660501,-4.2562504,10.856251,-10.3125
56.334231805929925,0.4653,-5.2492,1.219625,8.370001,-2.115,-8.503051,-4.2562504,10.856251,-10.3125
56.38814016172507,0.8025875,-5.3928876,0.6556,8.370001,-2.115,-8.503051,-4.6125,11.400001,-11.043751
56.44204851752022,0.8025875,-5.3928876,0.6556,8.578051,-0.24405001,-8.070001,-4.6125,11.400001,-11.043751
56.495956873315365,0.8888,-5.275875,0.5055875,-0.28905,0.41805002,-7.4130006,-4.6125,11.400001,-11.043751
56.549865229110516,-0.2105125,-4.5117874,-0.4203375,-0.28905,0.41805002,-7.4130006,-6.8437505,11.512501,-10.6875
56.60377358490566,-0.2105125,-4.5117874,-0.4203375,-5.34495,0.51405,-4.0150504,-6.8437505,11.512501,-10.6875
56.65768194070081,-0.10835,-3.0804124,0.1874125,-5.34495,0.51405,-4.0150504,-6.8437505,11.512501,-10.6875
56.71159029649596,-0.427625,-1.532025,0.469425,-5.34495,0.51405,-4.0150504,-7.8562503,11.45625,-8.1
56.76549865229111,-0.427625,-1.532025,0.469425,-8.863951,-0.64605004,0.87705004,-7.8562503,11.45625,-8.1
56.81940700808626,-0.5946875,-0.81785,-0.169125,-8.863951,-0.64605004,0.87705004,-7.8562503,11.45625,-8.1
56.8733153638814,-0.6617875,-1.47455,-0.37235,-9.331051,-0.44505003,1.15005,-7.8562503,11.45625,-8.1
56.927223719676554,-0.6617875,-1.47455,-0.37235,-8.227051,-2.079,4.82205,-7.6875005,12.356251,-5.45625
56.9811320754717,-0.5520625,-2.4684,0.5193375,-8.227051,-2.079,4.82205,-7.6875005,12.356251,-5.45625
57.03504043126685,1.3102375,-4.115925,0.3416875,-6.0210004,-1.1659501,3.354,-7.6875005,12.356251,-5.45625
57.088948787061994,1.3102375,-4.115925,0.3416875,-5.58195,-1.02705,7.4749503,-7.6875005,12.356251,-5.45625
57.142857142857146,0.1343375,-3.3092124,1.68575,-5.58195,-1.02705,7.4749503,-4.8,13.6125,-1.0875001
57.1967654986523,0.389675,-2.167275,0.7227,-8.00595,0.18795002,7.69605,-4.8,13.6125,-1.0875001
57.25067385444744,0.389675,-2.167275,0.7227,-3.90105,-2.9340003,8.70195,-4.8,13.6125,-1.0875001
57.30458221024259,0.759,-3.50075,0.6950625,-3.90105,-2.9340003,8.70195,-4.8,13.6125,-1.0875001
57.35849056603774,0.759,-3.50075,0.6950625,-3.489,-4.40205,9.015,1.2,15.900001,0.1875
57.41239892183289,-0.1689875,-4.376625,0.2011625,1.4170501,-0.57495004,8.649,1.2,15.900001,0.1875
57.46630727762803,-0.2083125,-3.82965,-0.1978625,1.4170501,-0.57495004,8.649,1.2,15.900001,0.1875
57.520215633423184,-0.2083125,-3.82965,-0.1978625,4.26,0.708,8.191951,1.2,15.900001,0.1875
57.57412398921833,-0.86185,-4.0838876,-0.363825,4.26,0.708,8.191951,5.64375,16.612501,-1.7437501
57.62803234501348,-0.0935,-3.6922874,-0.282975,4.9999504,1.2760501,7.9950004,5.64375,16.612501,-1.7437501
57.68194070080863,0.1832875,-3.1123126,-0.6980875,7.86705,-0.73695004,5.29395,5.64375,16.612501,-1.7437501
57.735849056603776,0.7579,-1.8299875,0.3289,7.86705,-0.73695004,5.29395,5.64375,16.612501,-1.7437501
57.78975741239893,0.7579,-1.8299875,0.3289,7.86705,-0.73695004,5.29395,7.4437504,17.212502,-4.9125004
57.84366576819407,0.487575,-2.4503875,0.468325,9.64605,-0.606,1.45905,7.4437504,17.212502,-4.9125004
57.89757412398922,0.487575,-3.6029124,0.4640625,9.64605,-0.606,1.45905,7.4437504,17.212502,-4.9125004
57.95148247978437,0.487575,-3.6029124,0.4640625,9.337951,1.6350001,-5.3250003,6.9,16.6875,-7.8
58.00539083557952,-0.687225,-4.195675,1.35795,9.337951,1.6350001,-5.3250003,6.9,16.6875,-7.8
58.05929919137466,-0.8553875,-4.622475,0.9461375,10.39395,1.2349501,-6.0529504,6.9,16.6875,-7.8
58.113207547169814,-0.451,-6.336825,0.2831125,6.71505,-0.37305,-7.69605,2.4,16.0125,-11.043751
58.167115902964966,0.1896125,-6.451775,0.076725,6.71505,-0.37305,-7.69605,2.4,16.0125,-11.043751
58.22102425876011,0.1896125,-6.451775,0.076725,4.56705,0.30795002,-8.6970005,2.4,16.0125,-11.043751
58.27493261455526,0.489775,-3.1549375,-0.3267,3.97305,0.29895002,-7.10895,2.4,16.0125,-11.043751
58.328840970350406,0.489775,-3.1549375,-0.3267,3.97305,0.29895002,-7.10895,-2.8875,14.887501,-9.0
58.38274932614556,0.1013375,-1.204225,0.3843125,-7.8220506,2.12805,-1.4860501,-2.8875,14.887501,-9.0
58.4366576819407,-0.62975,-1.37335,0.14795,-7.8220506,2.12805,-1.4860501,-2.8875,14.887501,-9.0
58.49056603773585,-0.3477375,-1.0594375,-0.3309625,-7.8220506,2.12805,-1.4860501,-3.6000001,13.9875,-6.24375
58.544474393531,-0.3477375,-1.0594375,-0.3309625,-12.09405,-0.9889501,0.13695,-3.6000001,13.9875,-6.24375
58.59838274932615,0.15235,-0.6081625,0.158675,-11.692051,-1.8649501,1.00695,-3.6000001,13.9875,-6.24375
58.6522911051213,-1.197075,-2.837725,0.4481125,-8.538,-0.86205006,4.4220004,-3.1125002,13.200001,-4.5
58.706199460916444,-1.197075,-2.837725,0.4481125,-8.538,-0.86205006,4.4220004,-3.1125002,13.200001,-4.5
58.760107816711596,-0.705375,-3.63165,1.0047125,-7.9200006,1.8910501,9.448951,-3.1125002,13.200001,-4.5
58.81401617250674,-0.89265,-3.6018124,0.6928625,-7.9200006,1.8910501,9.448951,-1.25625,13.25625,-0.35625002
58.86792452830189,-0.89265,-3.6018124,0.6928625,-7.9200006,1.8910501,9.448951,-1.25625,13.25625,-0.35625002
58.921832884097036,0.1480875,-3.8009124,0.80355,-5.1589503,-1.9300501,7.4350505,-1.25625,13.25625,-0.35625002
58.97574123989219,0.5726875,-3.8434,0.3086875,-4.26,-1.4580001,8.69505,-1.25625,13.25625,-0.35625002
59.02964959568733,0.5726875,-3.8434,0.3086875,-4.1140504,-1.2,11.248051,3.05625,13.743751,2.1000001
59.08355795148248,0.3950375,-2.4919126,0.043725,-4.1140504,-1.2,11.248051,3.05625,13.743751,2.1000001
59.137466307277634,0.4173125,-2.0449,-0.27981248,-3.2689502,-0.29700002,10.833,3.05625,13.743751,2.1000001
59.19137466307278,0.4173125,-2.0449,-0.27981248,1.79295,-1.6500001,8.484,3.05625,13.743751,2.1000001
59.24528301886793,0.6281,-2.0428374,-0.2223375,1.79295,-1.6500001,8.484,7.74375,13.556251,0.54375005
59.299191374663074,0.029975,-2.0374749,-0.18933749,1.743,-1.36995,8.78295,7.74375,13.556251,0.54375005
59.353099730458226,0.029975,-2.0374749,-0.18933749,6.4159503,-0.74205005,8.371051,7.74375,13.556251,0.54375005
59.40700808625337,0.2162875,-1.7458375,-0.265925,6.4159503,-0.74205005,8.371051,7.74375,13.556251,0.54375005
59.46091644204852,0.2013,-1.3968625,-0.2308625,6.4159503,-0.74205005,8.371051,11.8125,13.8,-4.0875
59.514824797843666,0.2013,-1.3968625,-0.2308625,8.752951,-0.43995002,4.0960503,11.8125,13.8,-4.0875
59.56873315363882,0.242825,-1.495725,-0.1233375,8.752951,-0.43995002,4.0960503,11.8125,13.8,-4.0875
59.62264150943397,0.2024,-2.0767999,0.34705,8.752951,-0.43995002,4.0960503,13.44375,13.087501,-10.8
59.67654986522911,0.2024,-2.0767999,0.34705,9.781051,0.82305,1.3230001,13.44375,13.087501,-10.8
59.730458221024264,-0.0488125,-1.6000875,0.288475,9.781051,0.82305,1.3230001,13.44375,13.087501,-10.8
59.78436657681941,-0.2987875,-1.7554625,0.3075875,9.72105,1.40505,1.3950001,13.44375,13.087501,-10.8
59.83827493261456,-0.1797125,-1.9597875,0.091575,11.191051,0.924,0.32895002,10.14375,11.75625,-19.087502
59.892183288409704,-0.1797125,-1.9597875,0.091575,11.191051,0.924,0.32895002,10.14375,11.75625,-19.087502
59.946091644204856,-0.43725,-1.5904624,0.1458875,9.229951,-0.60105,-2.7810001,10.14375,11.75625,-19.087502
60.0,-0.3317875,-1.24465,0.231,9.229951,-0.60105,-2.7810001,0.35625002,10.25625,-23.34375
60.05390835579515,-0.3317875,-1.24465,0.231,9.229951,-0.60105,-2.7810001,0.35625002,10.25625,-23.34375
60.1078167115903,-0.36905,-1.266925,0.11715,7.5529504,-0.52695,-5.3419504,0.35625002,10.25625,-23.34375
60.16172506738545,-0.36905,-1.266925,0.11715,7.5529504,-0.52695,-5.3419504,0.35625002,10.25625,-23.34375
60.2156334231806,-0.15619999,-0.9359625,-0.0286,7.5529504,-0.52695,-5.3419504,-10.25625,8.64375,-23.2875
60.26954177897574,0.293975,-0.5592125,0.0042625,5.99595,0.17595,-7.5360003,-10.25625,8.64375,-23.2875
60.323450134770894,0.293975,-0.5592125,0.0042625,5.99595,0.17595,-7.5360003,-10.25625,8.64375,-23.2875
60.37735849056604,0.5589375,-0.4783625,0.25753748,5.2320004,0.76305,-8.047951,-10.25625,8.64375,-23.2875
60.43126684636119,0.3438875,-0.3804625,0.05115,5.2320004,0.76305,-8.047951,-20.456251,6.95625,-20.7
60.485175202156334,0.3438875,-0.3804625,0.05115,4.9759502,0.37800002,-8.47395,-20.456251,6.95625,-20.7
60.539083557951486,-0.525525,0.0281875,0.106425,4.46595,1.0669501,-9.351001,-20.456251,6.95625,-20.7
60.59299191374664,-0.0466125,-0.98175,0.0724625,4.46595,1.0669501,-9.351001,-20.456251,6.95625,-20.7
60.64690026954178,-0.0466125,-0.98175,0.0724625,4.46595,1.0669501,-9.351001,-29.7,5.9437504,-14.812501
60.70080862533693,0.1236125,-1.8926874,-0.1808125,2.8140001,-0.61305004,-9.37005,-29.7,5.9437504,-14.812501
60.75471698113208,-0.6351125,-3.0782125,0.5311625,2.8140001,-0.61305004,-9.37005,-29.7,5.9437504,-14.812501
60.80862533692723,-0.6351125,-3.0782125,0.5311625,0.06405,-1.7310001,-5.5909505,-29.7,5.9437504,-14.812501
60.86253369272237,-0.59675,-4.41815,-0.5522,4.08795,1.1029501,-8.68305,-35.5125,4.9875,-6.3
60.916442048517524,-0.3488375,-5.389725,-0.1574375,4.08795,1.1029501,-8.68305,-35.5125,4.9875,-6.3
60.97035040431267,-0.3488375,-5.389725,-0.1574375,2.65995,0.20505,-9.681001,-35.5125,4.9875,-6.3
61.02425876010782,0.522775,-5.52695,-0.55439997,-0.90300006,-0.51705,-11.21895,-36.787502,4.0875,4.0875
61.07816711590297,0.4588375,-4.8533373,-0.7704125,-0.90300006,-0.51705,-11.21895,-36.787502,4.0875,4.0875
61.132075471698116,0.4588375,-4.8533373,-0.7704125,-1.7719501,0.22395001,-10.398001,-36.787502,4.0875,4.0875
61.18598382749327,0.93775,-4.2383,-1.1961125,-4.9429502,1.8580501,-7.4059505,-36.787502,4.0875,4.0875
61.23989218328841,0.4631,-2.7036624,-0.96195,-4.9429502,1.8580501,-7.4059505,-31.0125,3.6000001,13.687501
61.29380053908356,0.4631,-2.7036624,-0.96195,-6.354,1.0360501,-6.0070505,-31.0125,3.6000001,13.687501
61.34770889487871,-1.2087625,0.2453,0.90145,-6.7900505,-0.28005,-0.46995002,-31.0125,3.6000001,13.687501
61.40161725067386,0.2300375,0.4379375,0.908875,-6.7900505,-0.28005,-0.46995002,-31.0125,3.6000001,13.687501
61.455525606469,-0.2657875,-0.319825,-0.1925,-6.7900505,-0.28005,-0.46995002,-21.1875,4.9125004,18.1875
61.509433962264154,-0.2657875,-0.319825,-0.1925,-8.17095,0.07095,4.93905,-21.1875,4.9125004,18.1875
61.563342318059306,-0.575575,-2.4418626,-0.333025,-8.17095,0.07095,4.93905,-21.1875,4.9125004,18.1875
61.61725067385445,-0.575575,-2.4418626,-0.333025,-8.104051,-0.141,4.7790003,-21.1875,4.9125004,18.1875
61.6711590296496,-0.9725375,-5.0204,-0.0925375,-8.547,-5.6899505,11.248051,-9.95625,5.8125,19.800001
61.725067385444746,-1.02355,-5.0417123,-0.0999625,-8.547,-5.6899505,11.248051,-9.95625,5.8125,19.800001
61.7789757412399,-0.818125,-4.7289,-0.186175,-3.5779502,-1.6639501,9.123,-9.95625,5.8125,19.800001
61.83288409703504,-0.818125,-4.7289,-0.186175,-3.5779502,-1.6639501,9.123,0.65625,6.7875004,17.587502
61.88679245283019,-0.1296625,-2.8846126,-0.6480375,-3.5779502,-1.6639501,9.123,0.65625,6.7875004,17.587502
61.94070080862534,0.029975,-2.574825,-0.4565,-5.02005,-2.15805,10.528951,0.65625,6.7875004,17.587502
61.99460916442049,0.029975,-2.574825,-0.4565,-5.02005,-2.15805,10.528951,0.65625,6.7875004,17.587502
62.04851752021564,0.2322375,-3.0867374,-0.9491625,0.57405,-2.49105,9.283951,7.74375,8.75625,10.44375
62.102425876010784,0.424875,-4.1052,-0.5979875,0.57405,-2.49105,9.283951,7.74375,8.75625,10.44375
62.156334231805936,0.424875,-4.1052,-0.5979875,1.4440501,-2.8639503,8.031,7.74375,8.75625,10.44375
62.21024258760108,-0.9810625,-3.8891876,-0.4895,7.0620003,-3.11805,5.70795,7.74375,8.75625,10.44375
62.26415094339623,-1.1937749,-2.8994625,-1.1078374,7.0620003,-3.11805,5.70795,11.64375,10.387501,2.8125
62.318059299191376,-1.1937749,-2.8994625,-1.1078374,6.4870505,-2.9479501,6.117,11.64375,10.387501,2.8125
62.37196765498653,-1.694,-1.139325,-0.8927875,13.431001,-1.48905,4.2829504,11.64375,10.387501,2.8125
62.42587601078167,-0.5872625,-0.2475,-0.2627625,13.431001,-1.48905,4.2829504,12.056251,11.8125,-2.7562501
62.47978436657682,0.537625,-1.2871375,-0.4448125,12.160951,-1.69305,4.8840003,12.056251,11.8125,-2.7562501
62.533692722371974,0.537625,-1.2871375,-0.4448125,6.6499505,-0.675,-3.8110502,12.056251,11.8125,-2.7562501
62.58760107816712,1.3921875,-2.0332124,-0.6193,6.6499505,-0.675,-3.8110502,12.056251,11.8125,-2.7562501
62.64150943396227,1.143175,-1.6841,-0.3713875,6.6499505,-0.675,-3.8110502,9.7875,12.656251,-7.55625
62.695417789757414,1.143175,-1.6841,-0.3713875,9.16005,1.9729501,-6.6880503,9.7875,12.656251,-7.55625
62.749326145552565,0.4642,-0.304975,-0.43408749,9.16005,1.9729501,-6.6880503,9.7875,12.656251,-7.55625
62.80323450134771,-0.5605875,-0.498575,-0.463925,6.9979506,1.59,-6.11805,9.7875,12.656251,-7.55625
62.85714285714286,-0.6777375,-1.0742875,-0.0840125,6.9979506,1.59,-6.11805,2.1000001,13.387501,-11.212501
62.911051212938006,-0.6777375,-1.0742875,-0.0840125,6.9979506,1.59,-6.11805,2.1000001,13.387501,-11.212501
62.96495956873316,-0.6606875,-0.1687125,0.2011625,0.35595003,0.61005,-9.030001,2.1000001,13.387501,-11.212501
